trialsType,trialsNum,trialNum,trials1.thisRepN,trials1.thisTrialN,trials1.thisN,trials1.thisIndex,trials2.thisRepN,trials2.thisTrialN,trials2.thisN,trials2.thisIndex,instr1.started,instr1.stopped,fix.started,fix.stopped,trial1Mouse.x,trial1Mouse.y,trial1Mouse.leftButton,trial1Mouse.midButton,trial1Mouse.rightButton,trial1Mouse.time,trial1Mouse.started,trial1Mouse.stopped,step,targetangle_deg,trial1Target.started,trial1Target.stopped,trial1Home.started,trial1Home.stopped,trial1Cursor.started,trial1Cursor.stopped,trial1Num.started,trial1Num.stopped,trial2Mouse.x,trial2Mouse.y,trial2Mouse.leftButton,trial2Mouse.midButton,trial2Mouse.rightButton,trial2Mouse.time,trial2Mouse.started,trial2Mouse.stopped,trial2Target.started,trial2Target.stopped,trial2Home.started,trial2Home.stopped,trial2Cursor.started,trial2Cursor.stopped,trial2Num.started,trial2Num.stopped,trial2Text.started,trial2Text.stopped,participant,session,date,expName,psychopyVersion,frameRate,
1,1,1,0,0,0,0,,,,,11.416874499991536,None,13.264308100100607,None,"[-0.4401041666666667, -0.4453125, -0.4453125, -0.4453125, -0.4453125, -0.4453125, -0.4453125, -0.4453125]","[0.029947916666666668, 0.029947916666666668, 0.029947916666666668, 0.029947916666666668, 0.029947916666666668, 0.029947916666666668, 0.029947916666666668, 0.029947916666666668]","[0, 0, 0, 0, 0, 0, 0, 0]","[0, 0, 0, 0, 0, 0, 0, 0]","[0, 0, 0, 0, 0, 0, 0, 0]","[0.011720800073817372, 0.025474400026723742, 0.04249450005590916, 0.0591280001681298, 0.07579460018314421, 0.09305020002648234, 0.10908920015208423, 0.12570139998570085]",14.345032700104639,None,"[1, 1, 1, 1, 1, 1, 1, 1]",40,14.345032700104639,None,14.345032700104639,None,14.345032700104639,None,14.345032700104639,None,,,,,,,,,,,,,,,,,,,a,001,2020_Jun_25_1949,pAdaptTest4,2020.1.3,59.92362134268617,
1,1,2,0,1,1,1,,,,,,,,,"[-0.4453125, -0.4453125, -0.4453125, -0.4453125, -0.4453125, -0.4453125, -0.4453125, -0.4453125, -0.4453125, -0.4453125, -0.4453125, -0.4453125, -0.4453125, -0.4453125, -0.4453125, -0.4453125, -0.4453125, -0.4453125]","[0.029947916666666668, 0.029947916666666668, 0.029947916666666668, 0.029947916666666668, 0.029947916666666668, 0.029947916666666668, 0.029947916666666668, 0.029947916666666668, 0.029947916666666668, 0.029947916666666668, 0.029947916666666668, 0.029947916666666668, 0.029947916666666668, 0.029947916666666668, 0.029947916666666668, 0.029947916666666668, 0.029947916666666668, 0.029947916666666668]","[0, 0, 0, 0, 0, 0, 0, 0, 0, 0, 0, 0, 0, 0, 0, 0, 0, 0]","[0, 0, 0, 0, 0, 0, 0, 0, 0, 0, 0, 0, 0, 0, 0, 0, 0, 0]","[0, 0, 0, 0, 0, 0, 0, 0, 0, 0, 0, 0, 0, 0, 0, 0, 0, 0]","[0.005066199926659465, 0.01628410001285374, 0.040545100113376975, 0.05815179995261133, 0.07472250005230308, 0.091511300066486, 0.10809340002015233, 0.12473609996959567, 0.14140630001202226, 0.15805840003304183, 0.17466089990921319, 0.1913689998909831, 0.20806180010549724, 0.2246820000000298, 0.24129589996300638, 0.2580244999844581, 0.2746025000233203, 0.2917071001138538]",14.470192400040105,None,"[1, 1, 1, 1, 1, 1, 1, 1, 1, 1, 1, 1, 1, 1, 1, 1, 1, 1]",50,14.470192400040105,None,14.470192400040105,None,14.470192400040105,None,14.470192400040105,None,,,,,,,,,,,,,,,,,,,a,001,2020_Jun_25_1949,pAdaptTest4,2020.1.3,59.92362134268617,
1,1,3,0,2,2,2,,,,,,,,,"[-0.4453125, -0.4453125, -0.4453125, -0.4453125, -0.4453125, -0.4453125, -0.4453125, -0.4453125, -0.4453125, -0.4453125, -0.4453125, -0.4453125, -0.4453125, -0.4453125]","[0.029947916666666668, 0.029947916666666668, 0.029947916666666668, 0.029947916666666668, 0.029947916666666668, 0.029947916666666668, 0.029947916666666668, 0.029947916666666668, 0.029947916666666668, 0.029947916666666668, 0.029947916666666668, 0.029947916666666668, 0.029947916666666668, 0.029947916666666668]","[0, 0, 0, 0, 0, 0, 0, 0, 0, 0, 0, 0, 0, 0]","[0, 0, 0, 0, 0, 0, 0, 0, 0, 0, 0, 0, 0, 0]","[0, 0, 0, 0, 0, 0, 0, 0, 0, 0, 0, 0, 0, 0]","[0.005194500088691711, 0.017270900076255202, 0.04157870006747544, 0.05962079996243119, 0.07562660006806254, 0.09233090002089739, 0.10903330007568002, 0.1256462000310421, 0.14228640007786453, 0.15894529991783202, 0.17562399990856647, 0.1922603000421077, 0.20892879995517433, 0.22600180003792048]",14.770038000075147,None,"[1, 1, 1, 1, 1, 1, 1, 1, 1, 1, 1, 1, 1, 1]",40,14.770038000075147,None,14.770038000075147,None,14.770038000075147,None,14.770038000075147,None,,,,,,,,,,,,,,,,,,,a,001,2020_Jun_25_1949,pAdaptTest4,2020.1.3,59.92362134268617,
1,1,4,0,3,3,3,,,,,,,,,"[-0.4453125, -0.4453125, -0.4453125, -0.4453125, -0.4453125, -0.4453125, -0.4453125, -0.4453125, -0.4453125, -0.4453125, -0.4453125, -0.4453125, -0.4453125]","[0.029947916666666668, 0.029947916666666668, 0.029947916666666668, 0.029947916666666668, 0.029947916666666668, 0.029947916666666668, 0.029947916666666668, 0.029947916666666668, 0.029947916666666668, 0.029947916666666668, 0.029947916666666668, 0.029947916666666668, 0.029947916666666668]","[0, 0, 0, 0, 0, 0, 0, 0, 0, 0, 0, 0, 0]","[0, 0, 0, 0, 0, 0, 0, 0, 0, 0, 0, 0, 0]","[0, 0, 0, 0, 0, 0, 0, 0, 0, 0, 0, 0, 0]","[0.005061999894678593, 0.016876599984243512, 0.0409194000530988, 0.05851890007033944, 0.0758050000295043, 0.09176800004206598, 0.10842190007679164, 0.12507089995779097, 0.14180690003558993, 0.15837100008502603, 0.1751168998889625, 0.1917419999372214, 0.20882679987698793]",15.003501600120217,None,"[1, 1, 1, 1, 1, 1, 1, 1, 1, 1, 1, 1, 1]",50,15.003501600120217,None,15.003501600120217,None,15.003501600120217,None,15.003501600120217,None,,,,,,,,,,,,,,,,,,,a,001,2020_Jun_25_1949,pAdaptTest4,2020.1.3,59.92362134268617,
1,1,5,0,4,4,4,,,,,,,,,"[-0.4453125, -0.4453125, -0.4453125, -0.4453125, -0.4453125, -0.4453125, -0.4453125, -0.4453125, -0.4453125, -0.4453125, -0.4453125, -0.4453125, -0.4453125]","[0.029947916666666668, 0.029947916666666668, 0.029947916666666668, 0.029947916666666668, 0.029947916666666668, 0.029947916666666668, 0.029947916666666668, 0.029947916666666668, 0.029947916666666668, 0.029947916666666668, 0.029947916666666668, 0.029947916666666668, 0.029947916666666668]","[0, 0, 0, 0, 0, 0, 0, 0, 0, 0, 0, 0, 0]","[0, 0, 0, 0, 0, 0, 0, 0, 0, 0, 0, 0, 0]","[0, 0, 0, 0, 0, 0, 0, 0, 0, 0, 0, 0, 0]","[0.00787329999729991, 0.01942959986627102, 0.04193669999949634, 0.05949199991300702, 0.07610259996727109, 0.09282839996740222, 0.10947789996862411, 0.12614429998211563, 0.14270989992655814, 0.159421700052917, 0.1760807998944074, 0.19275479996576905, 0.209787999978289]",15.221759299980476,None,"[1, 1, 1, 1, 1, 1, 1, 1, 1, 1, 1, 1, 1]",40,15.221759299980476,None,15.221759299980476,None,15.221759299980476,None,15.221759299980476,None,,,,,,,,,,,,,,,,,,,a,001,2020_Jun_25_1949,pAdaptTest4,2020.1.3,59.92362134268617,
1,1,6,0,5,5,5,,,,,,,,,"[-0.4453125, -0.4453125, -0.4453125, -0.4453125, -0.4453125, -0.4453125, -0.4453125, -0.4453125, -0.4453125, -0.4453125, -0.4453125, -0.4453125, -0.4453125, -0.4453125, -0.4453125]","[0.029947916666666668, 0.029947916666666668, 0.029947916666666668, 0.029947916666666668, 0.029947916666666668, 0.029947916666666668, 0.029947916666666668, 0.029947916666666668, 0.029947916666666668, 0.029947916666666668, 0.029947916666666668, 0.029947916666666668, 0.029947916666666668, 0.029947916666666668, 0.029947916666666668]","[0, 0, 0, 0, 0, 0, 0, 0, 0, 0, 0, 0, 0, 0, 0]","[0, 0, 0, 0, 0, 0, 0, 0, 0, 0, 0, 0, 0, 0, 0]","[0, 0, 0, 0, 0, 0, 0, 0, 0, 0, 0, 0, 0, 0, 0]","[0.00463780015707016, 0.01635859999805689, 0.041453600162640214, 0.05890540010295808, 0.07548190001398325, 0.09218750009313226, 0.10886749997735023, 0.12550140009261668, 0.14219240006059408, 0.15886470000259578, 0.17556430003605783, 0.19221380003727973, 0.20883630006574094, 0.22550840000621974, 0.24219600018113852]",15.435962199931964,None,"[1, 1, 1, 1, 1, 1, 1, 1, 1, 1, 1, 1, 1, 1, 1]",50,15.435962199931964,None,15.435962199931964,None,15.435962199931964,None,15.435962199931964,None,,,,,,,,,,,,,,,,,,,a,001,2020_Jun_25_1949,pAdaptTest4,2020.1.3,59.92362134268617,
1,1,7,0,6,6,6,,,,,,,,,"[-0.4453125, -0.4453125, -0.4453125, -0.4453125, -0.4453125, -0.4453125, -0.4453125, -0.4453125, -0.4453125, -0.4453125, -0.4453125, -0.4453125, -0.4453125, -0.4453125, -0.4453125]","[0.029947916666666668, 0.029947916666666668, 0.029947916666666668, 0.029947916666666668, 0.029947916666666668, 0.029947916666666668, 0.029947916666666668, 0.029947916666666668, 0.029947916666666668, 0.029947916666666668, 0.029947916666666668, 0.029947916666666668, 0.029947916666666668, 0.029947916666666668, 0.029947916666666668]","[0, 0, 0, 0, 0, 0, 0, 0, 0, 0, 0, 0, 0, 0, 0]","[0, 0, 0, 0, 0, 0, 0, 0, 0, 0, 0, 0, 0, 0, 0]","[0, 0, 0, 0, 0, 0, 0, 0, 0, 0, 0, 0, 0, 0, 0]","[0.007954299915581942, 0.01920320000499487, 0.04201649990864098, 0.059534099884331226, 0.07609679992310703, 0.09280400001443923, 0.11004299996420741, 0.1261507999151945, 0.14274559984914958, 0.15946879982948303, 0.17608330002985895, 0.19281769986264408, 0.20943909999914467, 0.22611679998226464, 0.2427572999149561]",15.688496100017801,None,"[1, 1, 1, 1, 1, 1, 1, 1, 1, 1, 1, 1, 1, 1, 1]",40,15.688496100017801,None,15.688496100017801,None,15.688496100017801,None,15.688496100017801,None,,,,,,,,,,,,,,,,,,,a,001,2020_Jun_25_1949,pAdaptTest4,2020.1.3,59.92362134268617,
1,1,8,0,7,7,7,,,,,,,,,"[-0.4453125, -0.4453125, -0.4453125, -0.4453125, -0.4453125, -0.4453125, -0.4453125, -0.4453125, -0.4453125, -0.4453125, -0.4453125, -0.4453125, -0.4453125, -0.4453125, -0.4453125, -0.4453125]","[0.029947916666666668, 0.029947916666666668, 0.029947916666666668, 0.029947916666666668, 0.029947916666666668, 0.029947916666666668, 0.029947916666666668, 0.029947916666666668, 0.029947916666666668, 0.029947916666666668, 0.029947916666666668, 0.029947916666666668, 0.029947916666666668, 0.029947916666666668, 0.029947916666666668, 0.029947916666666668]","[0, 0, 0, 0, 0, 0, 0, 0, 0, 0, 0, 0, 0, 0, 0, 0]","[0, 0, 0, 0, 0, 0, 0, 0, 0, 0, 0, 0, 0, 0, 0, 0]","[0, 0, 0, 0, 0, 0, 0, 0, 0, 0, 0, 0, 0, 0, 0, 0]","[0.003750600153580308, 0.015288500115275383, 0.02733720000833273, 0.04338410007767379, 0.05997840012423694, 0.07668530009686947, 0.09387530013918877, 0.10999809997156262, 0.12664659996517003, 0.14330330002121627, 0.1598873999901116, 0.17660730006173253, 0.19326680013909936, 0.20992509997449815, 0.22660159994848073, 0.24402820016257465]",15.933523500105366,None,"[1, 1, 1, 1, 1, 1, 1, 1, 1, 1, 1, 1, 1, 1, 1, 1]",50,15.933523500105366,None,15.933523500105366,None,15.933523500105366,None,15.933523500105366,None,,,,,,,,,,,,,,,,,,,a,001,2020_Jun_25_1949,pAdaptTest4,2020.1.3,59.92362134268617,
1,1,9,0,8,8,8,,,,,,,,,"[-0.4453125, -0.4453125, -0.4453125, -0.4453125, -0.4453125, -0.4453125, -0.4453125, -0.4453125, -0.4453125, -0.4453125, -0.4453125, -0.4453125, -0.4453125, -0.4453125, -0.4453125, -0.4453125, -0.4453125, -0.4453125, -0.4453125, -0.4453125, -0.4453125, -0.4453125, -0.4453125]","[0.029947916666666668, 0.029947916666666668, 0.029947916666666668, 0.029947916666666668, 0.029947916666666668, 0.029947916666666668, 0.029947916666666668, 0.029947916666666668, 0.029947916666666668, 0.029947916666666668, 0.029947916666666668, 0.029947916666666668, 0.029947916666666668, 0.029947916666666668, 0.029947916666666668, 0.029947916666666668, 0.029947916666666668, 0.029947916666666668, 0.029947916666666668, 0.029947916666666668, 0.029947916666666668, 0.029947916666666668, 0.029947916666666668]","[0, 0, 0, 0, 0, 0, 0, 0, 0, 0, 0, 0, 0, 0, 0, 0, 0, 0, 0, 0, 0, 0, 0]","[0, 0, 0, 0, 0, 0, 0, 0, 0, 0, 0, 0, 0, 0, 0, 0, 0, 0, 0, 0, 0, 0, 0]","[0, 0, 0, 0, 0, 0, 0, 0, 0, 0, 0, 0, 0, 0, 0, 0, 0, 0, 0, 0, 0, 0, 0]","[0.004669599933549762, 0.01622179988771677, 0.0411722999997437, 0.05859869997948408, 0.07525280001573265, 0.09265799983404577, 0.10860189981758595, 0.12524620001204312, 0.14203160000033677, 0.15900569991208613, 0.17653159983456135, 0.1920529999770224, 0.20857049990445375, 0.22516429983079433, 0.2418602998368442, 0.258562000002712, 0.275193199981004, 0.2918789000250399, 0.30854009999893606, 0.32517179986461997, 0.34190259990282357, 0.35851609986275434, 0.3752148998901248]",16.185771899996325,None,"[1, 1, 1, 1, 1, 1, 1, 1, 1, 1, 1, 1, 1, 1, 1, 1, 1, 1, 1, 1, 1, 1, 1]",40,16.185771899996325,None,16.185771899996325,None,16.185771899996325,None,16.185771899996325,None,,,,,,,,,,,,,,,,,,,a,001,2020_Jun_25_1949,pAdaptTest4,2020.1.3,59.92362134268617,
1,1,10,0,9,9,9,,,,,,,,,"[-0.4453125, -0.4453125, -0.4453125, -0.4453125, -0.4453125, -0.4453125, -0.4453125, -0.4453125, -0.4453125, -0.4453125, -0.4453125, -0.4453125, -0.4453125, -0.4453125, -0.4453125, -0.4453125, -0.4453125, -0.4453125, -0.4453125, -0.4453125]","[0.029947916666666668, 0.029947916666666668, 0.029947916666666668, 0.029947916666666668, 0.029947916666666668, 0.029947916666666668, 0.029947916666666668, 0.029947916666666668, 0.029947916666666668, 0.029947916666666668, 0.029947916666666668, 0.029947916666666668, 0.029947916666666668, 0.029947916666666668, 0.029947916666666668, 0.029947916666666668, 0.029947916666666668, 0.029947916666666668, 0.029947916666666668, 0.029947916666666668]","[0, 0, 0, 0, 0, 0, 0, 0, 0, 0, 0, 0, 0, 0, 0, 0, 0, 0, 0, 0]","[0, 0, 0, 0, 0, 0, 0, 0, 0, 0, 0, 0, 0, 0, 0, 0, 0, 0, 0, 0]","[0, 0, 0, 0, 0, 0, 0, 0, 0, 0, 0, 0, 0, 0, 0, 0, 0, 0, 0, 0]","[0.008877799846231937, 0.020238999975845218, 0.04232229990884662, 0.06023780000396073, 0.07644500001333654, 0.09306339989416301, 0.11030389997176826, 0.12633569980971515, 0.1430748999118805, 0.15969199989922345, 0.17639009980484843, 0.1929965999443084, 0.20964419981464744, 0.2266241000033915, 0.2430916999001056, 0.25983569980598986, 0.2763926999177784, 0.29306749999523163, 0.3097178000025451, 0.32751139998435974]",16.571692199911922,None,"[1, 1, 1, 1, 1, 1, 1, 1, 1, 1, 1, 1, 1, 1, 1, 1, 1, 1, 1, 1]",50,16.571692199911922,None,16.571692199911922,None,16.571692199911922,None,16.571692199911922,None,,,,,,,,,,,,,,,,,,,a,001,2020_Jun_25_1949,pAdaptTest4,2020.1.3,59.92362134268617,
1,1,11,0,10,10,10,,,,,,,,,"[-0.4453125, -0.4453125, -0.4453125, -0.4453125, -0.4453125, -0.4453125, -0.4453125, -0.4453125, -0.4453125, -0.4453125, -0.4453125, -0.4453125, -0.4453125, -0.4453125, -0.4453125, -0.4453125, -0.4453125, -0.4453125]","[0.029947916666666668, 0.029947916666666668, 0.029947916666666668, 0.029947916666666668, 0.029947916666666668, 0.029947916666666668, 0.029947916666666668, 0.029947916666666668, 0.029947916666666668, 0.029947916666666668, 0.029947916666666668, 0.029947916666666668, 0.029947916666666668, 0.029947916666666668, 0.029947916666666668, 0.029947916666666668, 0.029947916666666668, 0.029947916666666668]","[0, 0, 0, 0, 0, 0, 0, 0, 0, 0, 0, 0, 0, 0, 0, 0, 0, 0]","[0, 0, 0, 0, 0, 0, 0, 0, 0, 0, 0, 0, 0, 0, 0, 0, 0, 0]","[0, 0, 0, 0, 0, 0, 0, 0, 0, 0, 0, 0, 0, 0, 0, 0, 0, 0]","[0.005161500070244074, 0.016231800196692348, 0.04103500000201166, 0.0585097000002861, 0.07515619997866452, 0.0917802001349628, 0.10887200012803078, 0.12512790015898645, 0.14181510009802878, 0.15862020011991262, 0.17525000008754432, 0.1917326000984758, 0.20842630020342767, 0.22514400002546608, 0.24171670014038682, 0.25838600005954504, 0.2751333999913186, 0.2921702000312507]",16.90321150003001,None,"[1, 1, 1, 1, 1, 1, 1, 1, 1, 1, 1, 1, 1, 1, 1, 1, 1, 1]",40,16.90321150003001,None,16.90321150003001,None,16.90321150003001,None,16.90321150003001,None,,,,,,,,,,,,,,,,,,,a,001,2020_Jun_25_1949,pAdaptTest4,2020.1.3,59.92362134268617,
1,1,12,0,11,11,11,,,,,,,,,"[-0.4453125, -0.4453125, -0.4453125, -0.4453125, -0.4453125, -0.4453125, -0.4453125, -0.4453125, -0.4453125, -0.4453125, -0.4453125, -0.4453125, -0.4453125, -0.4453125, -0.4453125, -0.4453125, -0.4453125, -0.4453125, -0.4453125, -0.4453125, -0.4453125, -0.4453125, -0.4453125]","[0.029947916666666668, 0.029947916666666668, 0.029947916666666668, 0.029947916666666668, 0.029947916666666668, 0.029947916666666668, 0.029947916666666668, 0.029947916666666668, 0.029947916666666668, 0.029947916666666668, 0.029947916666666668, 0.029947916666666668, 0.029947916666666668, 0.029947916666666668, 0.029947916666666668, 0.029947916666666668, 0.029947916666666668, 0.029947916666666668, 0.029947916666666668, 0.029947916666666668, 0.029947916666666668, 0.029947916666666668, 0.029947916666666668]","[0, 0, 0, 0, 0, 0, 0, 0, 0, 0, 0, 0, 0, 0, 0, 0, 0, 0, 0, 0, 0, 0, 0]","[0, 0, 0, 0, 0, 0, 0, 0, 0, 0, 0, 0, 0, 0, 0, 0, 0, 0, 0, 0, 0, 0, 0]","[0, 0, 0, 0, 0, 0, 0, 0, 0, 0, 0, 0, 0, 0, 0, 0, 0, 0, 0, 0, 0, 0, 0]","[0.0044860998168587685, 0.01627219980582595, 0.04143929993733764, 0.05906239990144968, 0.07615339988842607, 0.0923762999009341, 0.10900279995985329, 0.12570569990202785, 0.1422751999925822, 0.15887919999659061, 0.17560899979434907, 0.1922279999125749, 0.20909779984503984, 0.22559529985301197, 0.24236759985797107, 0.25892940000630915, 0.2756452998146415, 0.29225359996780753, 0.30927439988590777, 0.3256624999921769, 0.34226559987291694, 0.35896410001441836, 0.37555989995598793]",17.20174379996024,None,"[1, 1, 1, 1, 1, 1, 1, 1, 1, 1, 1, 1, 1, 1, 1, 1, 1, 1, 1, 1, 1, 1, 1]",50,17.20174379996024,None,17.20174379996024,None,17.20174379996024,None,17.20174379996024,None,,,,,,,,,,,,,,,,,,,a,001,2020_Jun_25_1949,pAdaptTest4,2020.1.3,59.92362134268617,
1,1,13,0,12,12,12,,,,,,,,,"[-0.4453125, -0.4453125, -0.4453125, -0.4453125, -0.4453125, -0.4453125, -0.4453125, -0.4453125, -0.4453125, -0.4453125, -0.4453125, -0.4453125, -0.4453125, -0.4453125, -0.4453125, -0.4453125, -0.4453125]","[0.029947916666666668, 0.029947916666666668, 0.029947916666666668, 0.029947916666666668, 0.029947916666666668, 0.029947916666666668, 0.029947916666666668, 0.029947916666666668, 0.029947916666666668, 0.029947916666666668, 0.029947916666666668, 0.029947916666666668, 0.029947916666666668, 0.029947916666666668, 0.029947916666666668, 0.029947916666666668, 0.029947916666666668]","[0, 0, 0, 0, 0, 0, 0, 0, 0, 0, 0, 0, 0, 0, 0, 0, 0]","[0, 0, 0, 0, 0, 0, 0, 0, 0, 0, 0, 0, 0, 0, 0, 0, 0]","[0, 0, 0, 0, 0, 0, 0, 0, 0, 0, 0, 0, 0, 0, 0, 0, 0]","[0.005520400125533342, 0.016693599987775087, 0.04083440010435879, 0.05920400004833937, 0.07502759993076324, 0.09171560010872781, 0.10824319999665022, 0.12503320001997054, 0.14172039995901287, 0.15835079993121326, 0.17499909992329776, 0.1916356000583619, 0.2082450999878347, 0.22490609996020794, 0.24169400008395314, 0.2582896000239998, 0.27559929993003607]",17.586060000117868,None,"[1, 1, 1, 1, 1, 1, 1, 1, 1, 1, 1, 1, 1, 1, 1, 1, 1]",40,17.586060000117868,None,17.586060000117868,None,17.586060000117868,None,17.586060000117868,None,,,,,,,,,,,,,,,,,,,a,001,2020_Jun_25_1949,pAdaptTest4,2020.1.3,59.92362134268617,
1,1,14,0,13,13,13,,,,,,,,,"[-0.4453125, -0.4453125, -0.4453125, -0.4453125, -0.4453125, -0.4453125, -0.4453125, -0.4453125, -0.4453125, -0.4453125, -0.4453125, -0.4453125, -0.4453125, -0.4453125, -0.4453125]","[0.029947916666666668, 0.029947916666666668, 0.029947916666666668, 0.029947916666666668, 0.029947916666666668, 0.029947916666666668, 0.029947916666666668, 0.029947916666666668, 0.029947916666666668, 0.029947916666666668, 0.029947916666666668, 0.029947916666666668, 0.029947916666666668, 0.029947916666666668, 0.029947916666666668]","[0, 0, 0, 0, 0, 0, 0, 0, 0, 0, 0, 0, 0, 0, 0]","[0, 0, 0, 0, 0, 0, 0, 0, 0, 0, 0, 0, 0, 0, 0]","[0, 0, 0, 0, 0, 0, 0, 0, 0, 0, 0, 0, 0, 0, 0]","[0.0047790000680834055, 0.016305800061672926, 0.04136530007235706, 0.058943399926647544, 0.0759568999055773, 0.0921815000474453, 0.10878459992818534, 0.12549829995259643, 0.14222280005924404, 0.1588667999021709, 0.17550030001439154, 0.192156600067392, 0.20883510005660355, 0.225461799884215, 0.24215060006827116]",17.868476500036195,None,"[1, 1, 1, 1, 1, 1, 1, 1, 1, 1, 1, 1, 1, 1, 1]",50,17.868476500036195,None,17.868476500036195,None,17.868476500036195,None,17.868476500036195,None,,,,,,,,,,,,,,,,,,,a,001,2020_Jun_25_1949,pAdaptTest4,2020.1.3,59.92362134268617,
1,1,15,0,14,14,14,,,,,,,,,"[-0.4453125, -0.4453125, -0.4453125, -0.4453125, -0.4453125, -0.4453125, -0.4453125, -0.4453125, -0.4453125, -0.4453125, -0.4453125, -0.4453125, -0.4453125, -0.4453125, -0.4453125, -0.4453125]","[0.029947916666666668, 0.029947916666666668, 0.029947916666666668, 0.029947916666666668, 0.029947916666666668, 0.029947916666666668, 0.029947916666666668, 0.029947916666666668, 0.029947916666666668, 0.029947916666666668, 0.029947916666666668, 0.029947916666666668, 0.029947916666666668, 0.029947916666666668, 0.029947916666666668, 0.029947916666666668]","[0, 0, 0, 0, 0, 0, 0, 0, 0, 0, 0, 0, 0, 0, 0, 0]","[0, 0, 0, 0, 0, 0, 0, 0, 0, 0, 0, 0, 0, 0, 0, 0]","[0, 0, 0, 0, 0, 0, 0, 0, 0, 0, 0, 0, 0, 0, 0, 0]","[0.00428940006531775, 0.016341699985787272, 0.04189820005558431, 0.05943210003897548, 0.07604059996083379, 0.09320269990712404, 0.10977820004336536, 0.12598949996754527, 0.14270680001936853, 0.15933319996111095, 0.1760728000663221, 0.1927430999930948, 0.20943460008129478, 0.22600649995729327, 0.24262070003896952, 0.2600869999732822]",18.11781150009483,None,"[1, 1, 1, 1, 1, 1, 1, 1, 1, 1, 1, 1, 1, 1, 1, 1]",40,18.11781150009483,None,18.11781150009483,None,18.11781150009483,None,18.11781150009483,None,,,,,,,,,,,,,,,,,,,a,001,2020_Jun_25_1949,pAdaptTest4,2020.1.3,59.92362134268617,
1,1,16,0,15,15,15,,,,,,,,,"[-0.4453125, -0.4453125, -0.4453125, -0.4453125, -0.4453125, -0.4453125, -0.4453125, -0.4453125, -0.4453125, -0.4453125, -0.4453125, -0.4453125, -0.4453125, -0.4453125, -0.4453125, -0.4453125, -0.4453125, -0.4453125]","[0.029947916666666668, 0.029947916666666668, 0.029947916666666668, 0.029947916666666668, 0.029947916666666668, 0.029947916666666668, 0.029947916666666668, 0.029947916666666668, 0.029947916666666668, 0.029947916666666668, 0.029947916666666668, 0.029947916666666668, 0.029947916666666668, 0.029947916666666668, 0.029947916666666668, 0.029947916666666668, 0.029947916666666668, 0.029947916666666668]","[0, 0, 0, 0, 0, 0, 0, 0, 0, 0, 0, 0, 0, 0, 0, 0, 0, 0]","[0, 0, 0, 0, 0, 0, 0, 0, 0, 0, 0, 0, 0, 0, 0, 0, 0, 0]","[0, 0, 0, 0, 0, 0, 0, 0, 0, 0, 0, 0, 0, 0, 0, 0, 0, 0]","[0.005557900061830878, 0.01711580017581582, 0.041048699989914894, 0.05851620016619563, 0.07515650009736419, 0.0918422001414001, 0.10906210006214678, 0.1255179001018405, 0.14236140018329024, 0.1589885000139475, 0.17556330002844334, 0.1921379000414163, 0.2084554999601096, 0.22513659996911883, 0.24182570003904402, 0.2584761001635343, 0.27511760010384023, 0.29226989997550845]",18.386268600123003,None,"[1, 1, 1, 1, 1, 1, 1, 1, 1, 1, 1, 1, 1, 1, 1, 1, 1, 1]",50,18.386268600123003,None,18.386268600123003,None,18.386268600123003,None,18.386268600123003,None,,,,,,,,,,,,,,,,,,,a,001,2020_Jun_25_1949,pAdaptTest4,2020.1.3,59.92362134268617,
1,1,17,0,16,16,16,,,,,,,,,"[-0.4453125, -0.4453125, -0.4453125, -0.4453125, -0.4453125, -0.4453125, -0.4453125, -0.4453125, -0.4453125, -0.4453125, -0.4453125, -0.4453125, -0.4453125]","[0.029947916666666668, 0.029947916666666668, 0.029947916666666668, 0.029947916666666668, 0.029947916666666668, 0.029947916666666668, 0.029947916666666668, 0.029947916666666668, 0.029947916666666668, 0.029947916666666668, 0.029947916666666668, 0.029947916666666668, 0.029947916666666668]","[0, 0, 0, 0, 0, 0, 0, 0, 0, 0, 0, 0, 0]","[0, 0, 0, 0, 0, 0, 0, 0, 0, 0, 0, 0, 0]","[0, 0, 0, 0, 0, 0, 0, 0, 0, 0, 0, 0, 0]","[0.004986500134691596, 0.01637450000271201, 0.04099350003525615, 0.05863610003143549, 0.07514610001817346, 0.09184050001204014, 0.10849970020353794, 0.12507020006887615, 0.14182220003567636, 0.1587923001497984, 0.17515210015699267, 0.1917818000074476, 0.20902439998462796]",18.685341200092807,None,"[1, 1, 1, 1, 1, 1, 1, 1, 1, 1, 1, 1, 1]",40,18.685341200092807,None,18.685341200092807,None,18.685341200092807,None,18.685341200092807,None,,,,,,,,,,,,,,,,,,,a,001,2020_Jun_25_1949,pAdaptTest4,2020.1.3,59.92362134268617,
1,1,18,0,17,17,17,,,,,,,,,"[-0.4453125, -0.4453125, -0.4453125, -0.4453125, -0.4453125, -0.4453125, -0.4453125, -0.4453125, -0.4453125, -0.4453125, -0.4453125, -0.4453125, -0.4453125, -0.4453125, -0.4453125, -0.4453125, -0.4453125, -0.4453125]","[0.029947916666666668, 0.029947916666666668, 0.029947916666666668, 0.029947916666666668, 0.029947916666666668, 0.029947916666666668, 0.029947916666666668, 0.029947916666666668, 0.029947916666666668, 0.029947916666666668, 0.029947916666666668, 0.029947916666666668, 0.029947916666666668, 0.029947916666666668, 0.029947916666666668, 0.029947916666666668, 0.029947916666666668, 0.029947916666666668]","[0, 0, 0, 0, 0, 0, 0, 0, 0, 0, 0, 0, 0, 0, 0, 0, 0, 0]","[0, 0, 0, 0, 0, 0, 0, 0, 0, 0, 0, 0, 0, 0, 0, 0, 0, 0]","[0, 0, 0, 0, 0, 0, 0, 0, 0, 0, 0, 0, 0, 0, 0, 0, 0, 0]","[0.004394299816340208, 0.016390400007367134, 0.04169530002400279, 0.05916479998268187, 0.07576479995623231, 0.09236739994958043, 0.10908429999835789, 0.1262721000239253, 0.14242449984885752, 0.15908310003578663, 0.1757660999428481, 0.19251860002987087, 0.2090563999954611, 0.2257528998889029, 0.24226889992132783, 0.25905889994464815, 0.27572469995357096, 0.2927794000133872]",18.901409500045702,None,"[1, 1, 1, 1, 1, 1, 1, 1, 1, 1, 1, 1, 1, 1, 1, 1, 1, 1]",50,18.901409500045702,None,18.901409500045702,None,18.901409500045702,None,18.901409500045702,None,,,,,,,,,,,,,,,,,,,a,001,2020_Jun_25_1949,pAdaptTest4,2020.1.3,59.92362134268617,
1,1,19,0,18,18,18,,,,,,,,,"[-0.4453125, -0.4453125, -0.4453125, -0.4453125, -0.4453125, -0.4453125, -0.4453125, -0.4453125, -0.4453125, -0.4453125, -0.4453125, -0.4453125, -0.4453125, -0.4453125, -0.4453125, -0.4453125, -0.4453125, -0.4453125]","[0.029947916666666668, 0.029947916666666668, 0.029947916666666668, 0.029947916666666668, 0.029947916666666668, 0.029947916666666668, 0.029947916666666668, 0.029947916666666668, 0.029947916666666668, 0.029947916666666668, 0.029947916666666668, 0.029947916666666668, 0.029947916666666668, 0.029947916666666668, 0.029947916666666668, 0.029947916666666668, 0.029947916666666668, 0.029947916666666668]","[0, 0, 0, 0, 0, 0, 0, 0, 0, 0, 0, 0, 0, 0, 0, 0, 0, 0]","[0, 0, 0, 0, 0, 0, 0, 0, 0, 0, 0, 0, 0, 0, 0, 0, 0, 0]","[0, 0, 0, 0, 0, 0, 0, 0, 0, 0, 0, 0, 0, 0, 0, 0, 0, 0]","[0.004619600018486381, 0.016370800090953708, 0.041574599919840693, 0.05903450003825128, 0.07569109997712076, 0.09237650013528764, 0.1099122001323849, 0.12564610014669597, 0.14227470010519028, 0.1592174000106752, 0.17576220002956688, 0.19234460010193288, 0.20896219997666776, 0.22562139993533492, 0.24226030008867383, 0.25911500002257526, 0.2755827000364661, 0.29230730002745986]",19.201494100037962,None,"[1, 1, 1, 1, 1, 1, 1, 1, 1, 1, 1, 1, 1, 1, 1, 1, 1, 1]",40,19.201494100037962,None,19.201494100037962,None,19.201494100037962,None,19.201494100037962,None,,,,,,,,,,,,,,,,,,,a,001,2020_Jun_25_1949,pAdaptTest4,2020.1.3,59.92362134268617,
1,1,20,0,19,19,19,,,,,,,,,"[-0.4453125, -0.4453125, -0.4453125, -0.4453125, -0.4453125, -0.4453125, -0.4453125, -0.4453125, -0.4453125, -0.4453125, -0.4453125, -0.4453125, -0.4453125, -0.4453125, -0.4453125, -0.4453125]","[0.029947916666666668, 0.029947916666666668, 0.029947916666666668, 0.029947916666666668, 0.029947916666666668, 0.029947916666666668, 0.029947916666666668, 0.029947916666666668, 0.029947916666666668, 0.029947916666666668, 0.029947916666666668, 0.029947916666666668, 0.029947916666666668, 0.029947916666666668, 0.029947916666666668, 0.029947916666666668]","[0, 0, 0, 0, 0, 0, 0, 0, 0, 0, 0, 0, 0, 0, 0, 0]","[0, 0, 0, 0, 0, 0, 0, 0, 0, 0, 0, 0, 0, 0, 0, 0]","[0, 0, 0, 0, 0, 0, 0, 0, 0, 0, 0, 0, 0, 0, 0, 0]","[0.004338399972766638, 0.01681330008432269, 0.042028400115668774, 0.05961250001564622, 0.07615670002996922, 0.0929332000669092, 0.10990200005471706, 0.12619150010868907, 0.14274190017022192, 0.15944840013980865, 0.1761576000135392, 0.1928189001046121, 0.20948399999178946, 0.22623090003617108, 0.2428156000096351, 0.2594415000639856]",19.501464700093493,None,"[1, 1, 1, 1, 1, 1, 1, 1, 1, 1, 1, 1, 1, 1, 1, 1]",50,19.501464700093493,None,19.501464700093493,None,19.501464700093493,None,19.501464700093493,None,,,,,,,,,,,,,,,,,,,a,001,2020_Jun_25_1949,pAdaptTest4,2020.1.3,59.92362134268617,
1,1,21,0,20,20,20,,,,,,,,,"[-0.4453125, -0.4453125, -0.4453125, -0.4453125, -0.4453125, -0.4453125, -0.4453125, -0.4453125, -0.4453125, -0.4453125, -0.4453125, -0.4453125, -0.4453125, -0.4453125, -0.4453125, -0.4453125, -0.4453125, -0.4453125, -0.4453125, -0.4453125, -0.4453125, -0.4453125, -0.4453125, -0.4453125]","[0.029947916666666668, 0.029947916666666668, 0.029947916666666668, 0.029947916666666668, 0.029947916666666668, 0.029947916666666668, 0.029947916666666668, 0.029947916666666668, 0.029947916666666668, 0.029947916666666668, 0.029947916666666668, 0.029947916666666668, 0.029947916666666668, 0.029947916666666668, 0.029947916666666668, 0.029947916666666668, 0.029947916666666668, 0.029947916666666668, 0.029947916666666668, 0.029947916666666668, 0.029947916666666668, 0.029947916666666668, 0.029947916666666668, 0.029947916666666668]","[0, 0, 0, 0, 0, 0, 0, 0, 0, 0, 0, 0, 0, 0, 0, 0, 0, 0, 0, 0, 0, 0, 0, 0]","[0, 0, 0, 0, 0, 0, 0, 0, 0, 0, 0, 0, 0, 0, 0, 0, 0, 0, 0, 0, 0, 0, 0, 0]","[0, 0, 0, 0, 0, 0, 0, 0, 0, 0, 0, 0, 0, 0, 0, 0, 0, 0, 0, 0, 0, 0, 0, 0]","[0.00416609994135797, 0.01614479999989271, 0.04179319995455444, 0.059457700001075864, 0.07596849999390543, 0.09316019993275404, 0.10923999990336597, 0.12592829996719956, 0.1426045000553131, 0.15935510001145303, 0.17592409998178482, 0.19271759991534054, 0.21030829986557364, 0.2265196000225842, 0.24261770001612604, 0.2591714998707175, 0.27594139985740185, 0.2925750999711454, 0.30933850002475083, 0.32581810001283884, 0.34251279989257455, 0.35921590006910264, 0.3770073000341654, 0.3929906999692321]",19.76773550012149,None,"[1, 1, 1, 1, 1, 1, 1, 1, 1, 1, 1, 1, 1, 1, 1, 1, 1, 1, 1, 1, 1, 1, 1, 1]",40,19.76773550012149,None,19.76773550012149,None,19.76773550012149,None,19.76773550012149,None,,,,,,,,,,,,,,,,,,,a,001,2020_Jun_25_1949,pAdaptTest4,2020.1.3,59.92362134268617,
1,1,22,0,21,21,21,,,,,,,,,"[-0.4453125, -0.4453125, -0.4453125, -0.4453125, -0.4453125, -0.4453125, -0.4453125, -0.4453125, -0.4453125, -0.4453125, -0.4453125, -0.4453125, -0.4453125, -0.4453125, -0.4453125, -0.4453125, -0.4453125]","[0.029947916666666668, 0.029947916666666668, 0.029947916666666668, 0.029947916666666668, 0.029947916666666668, 0.029947916666666668, 0.029947916666666668, 0.029947916666666668, 0.029947916666666668, 0.029947916666666668, 0.029947916666666668, 0.029947916666666668, 0.029947916666666668, 0.029947916666666668, 0.029947916666666668, 0.029947916666666668, 0.029947916666666668]","[0, 0, 0, 0, 0, 0, 0, 0, 0, 0, 0, 0, 0, 0, 0, 0, 0]","[0, 0, 0, 0, 0, 0, 0, 0, 0, 0, 0, 0, 0, 0, 0, 0, 0]","[0, 0, 0, 0, 0, 0, 0, 0, 0, 0, 0, 0, 0, 0, 0, 0, 0]","[0.004841999849304557, 0.016240299912169576, 0.041411699960008264, 0.059034699806943536, 0.0756031998898834, 0.09225009987130761, 0.10934369987808168, 0.12559499987401068, 0.14226539991796017, 0.1589108998887241, 0.17551319999620318, 0.19244139990769327, 0.20887420000508428, 0.2255674998741597, 0.24220749991945922, 0.25892659998498857, 0.2758831998798996]",20.16842420003377,None,"[1, 1, 1, 1, 1, 1, 1, 1, 1, 1, 1, 1, 1, 1, 1, 1, 1]",50,20.16842420003377,None,20.16842420003377,None,20.16842420003377,None,20.16842420003377,None,,,,,,,,,,,,,,,,,,,a,001,2020_Jun_25_1949,pAdaptTest4,2020.1.3,59.92362134268617,
1,1,23,0,22,22,22,,,,,,,,,"[-0.4453125, -0.4453125, -0.4453125, -0.4453125, -0.4453125, -0.4453125, -0.4453125, -0.4453125, -0.4453125, -0.4453125, -0.4453125, -0.4453125, -0.4453125, -0.4453125, -0.4453125]","[0.029947916666666668, 0.029947916666666668, 0.029947916666666668, 0.029947916666666668, 0.029947916666666668, 0.029947916666666668, 0.029947916666666668, 0.029947916666666668, 0.029947916666666668, 0.029947916666666668, 0.029947916666666668, 0.029947916666666668, 0.029947916666666668, 0.029947916666666668, 0.029947916666666668]","[0, 0, 0, 0, 0, 0, 0, 0, 0, 0, 0, 0, 0, 0, 0]","[0, 0, 0, 0, 0, 0, 0, 0, 0, 0, 0, 0, 0, 0, 0]","[0, 0, 0, 0, 0, 0, 0, 0, 0, 0, 0, 0, 0, 0, 0]","[0.005452100187540054, 0.017353700008243322, 0.04163520014844835, 0.05911500006914139, 0.0757381001021713, 0.09242020011879504, 0.10903839999809861, 0.12621870008297265, 0.14275050000287592, 0.15902340016327798, 0.1756798999849707, 0.192318000132218, 0.20898610004223883, 0.225643299985677, 0.2434791000559926]",20.452112100087106,None,"[1, 1, 1, 1, 1, 1, 1, 1, 1, 1, 1, 1, 1, 1, 1]",40,20.452112100087106,None,20.452112100087106,None,20.452112100087106,None,20.452112100087106,None,,,,,,,,,,,,,,,,,,,a,001,2020_Jun_25_1949,pAdaptTest4,2020.1.3,59.92362134268617,
1,1,24,0,23,23,23,,,,,,,,,"[-0.4453125, -0.4453125, -0.4453125, -0.4453125, -0.4453125, -0.4453125, -0.4453125, -0.4453125, -0.4453125, -0.4453125, -0.4453125, -0.4453125, -0.4453125, -0.4453125, -0.4453125]","[0.029947916666666668, 0.029947916666666668, 0.029947916666666668, 0.029947916666666668, 0.029947916666666668, 0.029947916666666668, 0.029947916666666668, 0.029947916666666668, 0.029947916666666668, 0.029947916666666668, 0.029947916666666668, 0.029947916666666668, 0.029947916666666668, 0.029947916666666668, 0.029947916666666668]","[0, 0, 0, 0, 0, 0, 0, 0, 0, 0, 0, 0, 0, 0, 0]","[0, 0, 0, 0, 0, 0, 0, 0, 0, 0, 0, 0, 0, 0, 0]","[0, 0, 0, 0, 0, 0, 0, 0, 0, 0, 0, 0, 0, 0, 0]","[0.004979399964213371, 0.016494600102305412, 0.04084330005571246, 0.05833670007996261, 0.07494600000791252, 0.09164190012961626, 0.1083080000244081, 0.12494740006513894, 0.14209780003875494, 0.15815969998948276, 0.1749219000339508, 0.1915531000122428, 0.2082591000944376, 0.2249348999466747, 0.24217570014297962]",20.701847000047565,None,"[1, 1, 1, 1, 1, 1, 1, 1, 1, 1, 1, 1, 1, 1, 1]",50,20.701847000047565,None,20.701847000047565,None,20.701847000047565,None,20.701847000047565,None,,,,,,,,,,,,,,,,,,,a,001,2020_Jun_25_1949,pAdaptTest4,2020.1.3,59.92362134268617,
1,1,25,0,24,24,24,,,,,,,,,"[-0.4453125, -0.4453125, -0.4453125, -0.4453125, -0.4453125, -0.4453125, -0.4453125, -0.4453125, -0.4453125, -0.4453125, -0.4453125, -0.4453125, -0.4453125, -0.4453125, -0.4453125, -0.4453125, -0.4453125, -0.4453125, -0.4453125]","[0.029947916666666668, 0.029947916666666668, 0.029947916666666668, 0.029947916666666668, 0.029947916666666668, 0.029947916666666668, 0.029947916666666668, 0.029947916666666668, 0.029947916666666668, 0.029947916666666668, 0.029947916666666668, 0.029947916666666668, 0.029947916666666668, 0.029947916666666668, 0.029947916666666668, 0.029947916666666668, 0.029947916666666668, 0.029947916666666668, 0.029947916666666668]","[0, 0, 0, 0, 0, 0, 0, 0, 0, 0, 0, 0, 0, 0, 0, 0, 0, 0, 0]","[0, 0, 0, 0, 0, 0, 0, 0, 0, 0, 0, 0, 0, 0, 0, 0, 0, 0, 0]","[0, 0, 0, 0, 0, 0, 0, 0, 0, 0, 0, 0, 0, 0, 0, 0, 0, 0, 0]","[0.0050437001045793295, 0.016409400152042508, 0.04123660014010966, 0.05881990003399551, 0.07541220006532967, 0.09211550001055002, 0.10867330012843013, 0.12542370008304715, 0.14212079998105764, 0.15957340016029775, 0.17543269996531308, 0.19200909999199212, 0.20868919999338686, 0.22538379998877645, 0.24213430006057024, 0.2589064999483526, 0.27537539997138083, 0.2920169001445174, 0.3091164999641478]",20.951366800116375,None,"[1, 1, 1, 1, 1, 1, 1, 1, 1, 1, 1, 1, 1, 1, 1, 1, 1, 1, 1]",40,20.951366800116375,None,20.951366800116375,None,20.951366800116375,None,20.951366800116375,None,,,,,,,,,,,,,,,,,,,a,001,2020_Jun_25_1949,pAdaptTest4,2020.1.3,59.92362134268617,
1,1,26,0,25,25,25,,,,,,,,,"[-0.4453125, -0.4453125, -0.4453125, -0.4453125, -0.4453125, -0.4453125, -0.4453125, -0.4453125, -0.4453125, -0.4453125, -0.4453125, -0.4453125, -0.4453125, -0.4453125, -0.4453125, -0.4453125, -0.4453125]","[0.029947916666666668, 0.029947916666666668, 0.029947916666666668, 0.029947916666666668, 0.029947916666666668, 0.029947916666666668, 0.029947916666666668, 0.029947916666666668, 0.029947916666666668, 0.029947916666666668, 0.029947916666666668, 0.029947916666666668, 0.029947916666666668, 0.029947916666666668, 0.029947916666666668, 0.029947916666666668, 0.029947916666666668]","[0, 0, 0, 0, 0, 0, 0, 0, 0, 0, 0, 0, 0, 0, 0, 0, 0]","[0, 0, 0, 0, 0, 0, 0, 0, 0, 0, 0, 0, 0, 0, 0, 0, 0]","[0, 0, 0, 0, 0, 0, 0, 0, 0, 0, 0, 0, 0, 0, 0, 0, 0]","[0.004967899993062019, 0.016863099997863173, 0.04108720016665757, 0.05847769998945296, 0.07514840015210211, 0.09180589998140931, 0.10909220017492771, 0.125098500167951, 0.1417908000294119, 0.15892189997248352, 0.17511830013245344, 0.19177350006066263, 0.20841980003751814, 0.225122099975124, 0.24176520016044378, 0.25844530016183853, 0.27570040011778474]",21.26867439993657,None,"[1, 1, 1, 1, 1, 1, 1, 1, 1, 1, 1, 1, 1, 1, 1, 1, 1]",50,21.26867439993657,None,21.26867439993657,None,21.26867439993657,None,21.26867439993657,None,,,,,,,,,,,,,,,,,,,a,001,2020_Jun_25_1949,pAdaptTest4,2020.1.3,59.92362134268617,
1,1,27,0,26,26,26,,,,,,,,,"[-0.4453125, -0.4453125, -0.4453125, -0.4453125, -0.4453125, -0.4453125, -0.4453125, -0.4453125, -0.4453125, -0.4453125, -0.4453125, -0.4453125, -0.4453125, -0.4453125, -0.4453125, -0.4453125, -0.4453125, -0.4453125, -0.4453125, -0.4453125]","[0.029947916666666668, 0.029947916666666668, 0.029947916666666668, 0.029947916666666668, 0.029947916666666668, 0.029947916666666668, 0.029947916666666668, 0.029947916666666668, 0.029947916666666668, 0.029947916666666668, 0.029947916666666668, 0.029947916666666668, 0.029947916666666668, 0.029947916666666668, 0.029947916666666668, 0.029947916666666668, 0.029947916666666668, 0.029947916666666668, 0.029947916666666668, 0.029947916666666668]","[0, 0, 0, 0, 0, 0, 0, 0, 0, 0, 0, 0, 0, 0, 0, 0, 0, 0, 0, 0]","[0, 0, 0, 0, 0, 0, 0, 0, 0, 0, 0, 0, 0, 0, 0, 0, 0, 0, 0, 0]","[0, 0, 0, 0, 0, 0, 0, 0, 0, 0, 0, 0, 0, 0, 0, 0, 0, 0, 0, 0]","[0.0049130001571029425, 0.016370699973776937, 0.04138369997963309, 0.05885870009660721, 0.0754844001494348, 0.09219640004448593, 0.10876670014113188, 0.12543750018812716, 0.1427782999817282, 0.1587394999805838, 0.17583630001172423, 0.19207580015063286, 0.20877360017038882, 0.22540020011365414, 0.24210990010760725, 0.2587123999837786, 0.27554920013062656, 0.2921023000963032, 0.3088323001284152, 0.3258417001925409]",21.551029599970207,None,"[1, 1, 1, 1, 1, 1, 1, 1, 1, 1, 1, 1, 1, 1, 1, 1, 1, 1, 1, 1]",40,21.551029599970207,None,21.551029599970207,None,21.551029599970207,None,21.551029599970207,None,,,,,,,,,,,,,,,,,,,a,001,2020_Jun_25_1949,pAdaptTest4,2020.1.3,59.92362134268617,
1,1,28,0,27,27,27,,,,,,,,,"[-0.4453125, -0.4453125, -0.4453125, -0.4453125, -0.4453125, -0.4453125, -0.4453125, -0.4453125, -0.4453125, -0.4453125, -0.4453125, -0.4453125, -0.4453125, -0.4453125, -0.4453125, -0.4453125, -0.4453125]","[0.029947916666666668, 0.029947916666666668, 0.029947916666666668, 0.029947916666666668, 0.029947916666666668, 0.029947916666666668, 0.029947916666666668, 0.029947916666666668, 0.029947916666666668, 0.029947916666666668, 0.029947916666666668, 0.029947916666666668, 0.029947916666666668, 0.029947916666666668, 0.029947916666666668, 0.029947916666666668, 0.029947916666666668]","[0, 0, 0, 0, 0, 0, 0, 0, 0, 0, 0, 0, 0, 0, 0, 0, 0]","[0, 0, 0, 0, 0, 0, 0, 0, 0, 0, 0, 0, 0, 0, 0, 0, 0]","[0, 0, 0, 0, 0, 0, 0, 0, 0, 0, 0, 0, 0, 0, 0, 0, 0]","[0.005058600101619959, 0.017086500069126487, 0.04130399995483458, 0.05879430007189512, 0.07538980012759566, 0.09202189999632537, 0.10867490014061332, 0.12534709996543825, 0.14199419994838536, 0.15920380013994873, 0.17533449991606176, 0.19198679993860424, 0.20858710003085434, 0.22543049999512732, 0.24195590009912848, 0.2586497999727726, 0.2758897999301553]",21.885408899979666,None,"[1, 1, 1, 1, 1, 1, 1, 1, 1, 1, 1, 1, 1, 1, 1, 1, 1]",50,21.885408899979666,None,21.885408899979666,None,21.885408899979666,None,21.885408899979666,None,,,,,,,,,,,,,,,,,,,a,001,2020_Jun_25_1949,pAdaptTest4,2020.1.3,59.92362134268617,
1,1,29,0,28,28,28,,,,,,,,,"[-0.4453125, -0.4453125, -0.4453125, -0.4453125, -0.4453125, -0.4453125, -0.4453125, -0.4453125, -0.4453125, -0.4453125, -0.4453125, -0.4453125, -0.4453125, -0.4453125, -0.4453125, -0.4453125, -0.4453125]","[0.029947916666666668, 0.029947916666666668, 0.029947916666666668, 0.029947916666666668, 0.029947916666666668, 0.029947916666666668, 0.029947916666666668, 0.029947916666666668, 0.029947916666666668, 0.029947916666666668, 0.029947916666666668, 0.029947916666666668, 0.029947916666666668, 0.029947916666666668, 0.029947916666666668, 0.029947916666666668, 0.029947916666666668]","[0, 0, 0, 0, 0, 0, 0, 0, 0, 0, 0, 0, 0, 0, 0, 0, 0]","[0, 0, 0, 0, 0, 0, 0, 0, 0, 0, 0, 0, 0, 0, 0, 0, 0]","[0, 0, 0, 0, 0, 0, 0, 0, 0, 0, 0, 0, 0, 0, 0, 0, 0]","[0.004966899985447526, 0.016940899891778827, 0.04093969985842705, 0.05848749983124435, 0.07511019986122847, 0.09170439979061484, 0.10843719984404743, 0.1255648999940604, 0.14182859985157847, 0.15840379986912012, 0.17530889995396137, 0.19176099984906614, 0.20837719994597137, 0.22502449993044138, 0.2417284999974072, 0.25835299980826676, 0.275655800011009]",22.16855649999343,None,"[1, 1, 1, 1, 1, 1, 1, 1, 1, 1, 1, 1, 1, 1, 1, 1, 1]",40,22.16855649999343,None,22.16855649999343,None,22.16855649999343,None,22.16855649999343,None,,,,,,,,,,,,,,,,,,,a,001,2020_Jun_25_1949,pAdaptTest4,2020.1.3,59.92362134268617,
1,1,30,0,29,29,29,,,,,,,,,"[-0.4453125, -0.4453125, -0.4453125, -0.4453125, -0.4453125, -0.4453125, -0.4453125, -0.4453125, -0.4453125, -0.4453125, -0.4453125, -0.4453125, -0.4453125, -0.4453125, -0.4453125, -0.4453125, -0.4453125]","[0.029947916666666668, 0.029947916666666668, 0.029947916666666668, 0.029947916666666668, 0.029947916666666668, 0.029947916666666668, 0.029947916666666668, 0.029947916666666668, 0.029947916666666668, 0.029947916666666668, 0.029947916666666668, 0.029947916666666668, 0.029947916666666668, 0.029947916666666668, 0.029947916666666668, 0.029947916666666668, 0.029947916666666668]","[0, 0, 0, 0, 0, 0, 0, 0, 0, 0, 0, 0, 0, 0, 0, 0, 0]","[0, 0, 0, 0, 0, 0, 0, 0, 0, 0, 0, 0, 0, 0, 0, 0, 0]","[0, 0, 0, 0, 0, 0, 0, 0, 0, 0, 0, 0, 0, 0, 0, 0, 0]","[0.005503699881955981, 0.017348699970170856, 0.04161079996265471, 0.05915870005264878, 0.07577329990454018, 0.09244939987547696, 0.10911189997568727, 0.12576720002107322, 0.14239559997804463, 0.15916309994645417, 0.17575829988345504, 0.1923920998815447, 0.2091012999881059, 0.22572229988873005, 0.2423747000284493, 0.2590236000251025, 0.2764323998708278]",22.451768500031903,None,"[1, 1, 1, 1, 1, 1, 1, 1, 1, 1, 1, 1, 1, 1, 1, 1, 1]",50,22.451768500031903,None,22.451768500031903,None,22.451768500031903,None,22.451768500031903,None,,,,,,,,,,,,,,,,,,,a,001,2020_Jun_25_1949,pAdaptTest4,2020.1.3,59.92362134268617,
1,1,31,0,30,30,30,,,,,,,,,"[-0.4453125, -0.4453125, -0.4453125, -0.4453125, -0.4453125, -0.4453125, -0.4453125, -0.4453125, -0.4453125, -0.4453125, -0.4453125, -0.4453125, -0.4453125, -0.4453125, -0.4453125, -0.4453125, -0.4453125]","[0.029947916666666668, 0.029947916666666668, 0.029947916666666668, 0.029947916666666668, 0.029947916666666668, 0.029947916666666668, 0.029947916666666668, 0.029947916666666668, 0.029947916666666668, 0.029947916666666668, 0.029947916666666668, 0.029947916666666668, 0.029947916666666668, 0.029947916666666668, 0.029947916666666668, 0.029947916666666668, 0.029947916666666668]","[0, 0, 0, 0, 0, 0, 0, 0, 0, 0, 0, 0, 0, 0, 0, 0, 0]","[0, 0, 0, 0, 0, 0, 0, 0, 0, 0, 0, 0, 0, 0, 0, 0, 0]","[0, 0, 0, 0, 0, 0, 0, 0, 0, 0, 0, 0, 0, 0, 0, 0, 0]","[0.0049709000159054995, 0.01631850004196167, 0.04094820003956556, 0.05843330011703074, 0.07507860008627176, 0.09173829993233085, 0.10832460015080869, 0.12571829999797046, 0.14171340013854206, 0.1583382000681013, 0.17516330000944436, 0.19170520012266934, 0.20835420000366867, 0.22542030015029013, 0.24169249995611608, 0.25830069999210536, 0.275443600025028]",22.73449290008284,None,"[1, 1, 1, 1, 1, 1, 1, 1, 1, 1, 1, 1, 1, 1, 1, 1, 1]",40,22.73449290008284,None,22.73449290008284,None,22.73449290008284,None,22.73449290008284,None,,,,,,,,,,,,,,,,,,,a,001,2020_Jun_25_1949,pAdaptTest4,2020.1.3,59.92362134268617,
1,1,32,0,31,31,31,,,,,,,,,"[-0.4453125, -0.4453125, -0.4453125, -0.4453125, -0.4453125, -0.4453125, -0.4453125, -0.4453125, -0.4453125, -0.4453125, -0.4453125, -0.4453125, -0.4453125, -0.4453125]","[0.029947916666666668, 0.029947916666666668, 0.029947916666666668, 0.029947916666666668, 0.029947916666666668, 0.029947916666666668, 0.029947916666666668, 0.029947916666666668, 0.029947916666666668, 0.029947916666666668, 0.029947916666666668, 0.029947916666666668, 0.029947916666666668, 0.029947916666666668]","[0, 0, 0, 0, 0, 0, 0, 0, 0, 0, 0, 0, 0, 0]","[0, 0, 0, 0, 0, 0, 0, 0, 0, 0, 0, 0, 0, 0]","[0, 0, 0, 0, 0, 0, 0, 0, 0, 0, 0, 0, 0, 0]","[0.0045727998949587345, 0.01631089998409152, 0.0416077000554651, 0.05902620009146631, 0.07566209998913109, 0.09230199991725385, 0.10898089990951121, 0.125664500053972, 0.14233789988793433, 0.15898209996521473, 0.17558449995703995, 0.19221029989421368, 0.20893309987150133, 0.22604330000467598]",23.01706500002183,None,"[1, 1, 1, 1, 1, 1, 1, 1, 1, 1, 1, 1, 1, 1]",50,23.01706500002183,None,23.01706500002183,None,23.01706500002183,None,23.01706500002183,None,,,,,,,,,,,,,,,,,,,a,001,2020_Jun_25_1949,pAdaptTest4,2020.1.3,59.92362134268617,
1,1,33,0,32,32,32,,,,,,,,,"[-0.4453125, -0.4453125, -0.4453125, -0.4453125, -0.4453125, -0.4453125, -0.4453125, -0.4453125, -0.4453125, -0.4453125, -0.4453125, -0.4453125, -0.4453125, -0.4453125]","[0.029947916666666668, 0.029947916666666668, 0.029947916666666668, 0.029947916666666668, 0.029947916666666668, 0.029947916666666668, 0.029947916666666668, 0.029947916666666668, 0.029947916666666668, 0.029947916666666668, 0.029947916666666668, 0.029947916666666668, 0.029947916666666668, 0.029947916666666668]","[0, 0, 0, 0, 0, 0, 0, 0, 0, 0, 0, 0, 0, 0]","[0, 0, 0, 0, 0, 0, 0, 0, 0, 0, 0, 0, 0, 0]","[0, 0, 0, 0, 0, 0, 0, 0, 0, 0, 0, 0, 0, 0]","[0.004247900098562241, 0.016346799908205867, 0.04201340000145137, 0.05956480000168085, 0.07611809996888041, 0.09347600000910461, 0.10945390001870692, 0.12609650008380413, 0.14315890008583665, 0.15943349990993738, 0.17612099996767938, 0.19271499989554286, 0.20948290009982884, 0.2272318999748677]",23.2502272001002,None,"[1, 1, 1, 1, 1, 1, 1, 1, 1, 1, 1, 1, 1, 1]",40,23.2502272001002,None,23.2502272001002,None,23.2502272001002,None,23.2502272001002,None,,,,,,,,,,,,,,,,,,,a,001,2020_Jun_25_1949,pAdaptTest4,2020.1.3,59.92362134268617,
1,1,34,0,33,33,33,,,,,,,,,"[-0.4453125, -0.4453125, -0.4453125, -0.4453125, -0.4453125, -0.4453125, -0.4453125, -0.4453125, -0.4453125, -0.4453125, -0.4453125, -0.4453125, -0.4453125, -0.4453125]","[0.029947916666666668, 0.029947916666666668, 0.029947916666666668, 0.029947916666666668, 0.029947916666666668, 0.029947916666666668, 0.029947916666666668, 0.029947916666666668, 0.029947916666666668, 0.029947916666666668, 0.029947916666666668, 0.029947916666666668, 0.029947916666666668, 0.029947916666666668]","[0, 0, 0, 0, 0, 0, 0, 0, 0, 0, 0, 0, 0, 0]","[0, 0, 0, 0, 0, 0, 0, 0, 0, 0, 0, 0, 0, 0]","[0, 0, 0, 0, 0, 0, 0, 0, 0, 0, 0, 0, 0, 0]","[0.0050346998032182455, 0.01641019992530346, 0.04085009987466037, 0.05841830000281334, 0.07496799994260073, 0.09176649991422892, 0.10884629981592298, 0.12499769986607134, 0.14164069993421435, 0.15827499981969595, 0.17501309979707003, 0.1917232999112457, 0.20824049995280802, 0.22491979994811118]",23.48448000010103,None,"[1, 1, 1, 1, 1, 1, 1, 1, 1, 1, 1, 1, 1, 1]",50,23.48448000010103,None,23.48448000010103,None,23.48448000010103,None,23.48448000010103,None,,,,,,,,,,,,,,,,,,,a,001,2020_Jun_25_1949,pAdaptTest4,2020.1.3,59.92362134268617,
1,1,35,0,34,34,34,,,,,,,,,"[-0.4453125, -0.4453125, -0.4453125, -0.4453125, -0.4453125, -0.4453125, -0.4453125, -0.4453125, -0.4453125, -0.4453125, -0.4453125, -0.4453125, -0.4453125, -0.4453125, -0.4453125]","[0.029947916666666668, 0.029947916666666668, 0.029947916666666668, 0.029947916666666668, 0.029947916666666668, 0.029947916666666668, 0.029947916666666668, 0.029947916666666668, 0.029947916666666668, 0.029947916666666668, 0.029947916666666668, 0.029947916666666668, 0.029947916666666668, 0.029947916666666668, 0.029947916666666668]","[0, 0, 0, 0, 0, 0, 0, 0, 0, 0, 0, 0, 0, 0, 0]","[0, 0, 0, 0, 0, 0, 0, 0, 0, 0, 0, 0, 0, 0, 0]","[0, 0, 0, 0, 0, 0, 0, 0, 0, 0, 0, 0, 0, 0, 0]","[0.004270999925211072, 0.01648300001397729, 0.028045999817550182, 0.04332820000126958, 0.060011700028553605, 0.07662419998086989, 0.09326429991051555, 0.10997809981927276, 0.12663279986009002, 0.14327529980801046, 0.15998459979891777, 0.17658999981358647, 0.1932878999505192, 0.20992519985884428, 0.2266057999804616]",23.716176700079814,None,"[1, 1, 1, 1, 1, 1, 1, 1, 1, 1, 1, 1, 1, 1, 1]",40,23.716176700079814,None,23.716176700079814,None,23.716176700079814,None,23.716176700079814,None,,,,,,,,,,,,,,,,,,,a,001,2020_Jun_25_1949,pAdaptTest4,2020.1.3,59.92362134268617,
1,1,36,0,35,35,35,,,,,,,,,"[-0.4453125, -0.4453125, -0.4453125, -0.4453125, -0.4453125, -0.4453125, -0.4453125, -0.4453125, -0.4453125, -0.4453125, -0.4453125, -0.4453125, -0.4453125]","[0.029947916666666668, 0.029947916666666668, 0.029947916666666668, 0.029947916666666668, 0.029947916666666668, 0.029947916666666668, 0.029947916666666668, 0.029947916666666668, 0.029947916666666668, 0.029947916666666668, 0.029947916666666668, 0.029947916666666668, 0.029947916666666668]","[0, 0, 0, 0, 0, 0, 0, 0, 0, 0, 0, 0, 0]","[0, 0, 0, 0, 0, 0, 0, 0, 0, 0, 0, 0, 0]","[0, 0, 0, 0, 0, 0, 0, 0, 0, 0, 0, 0, 0]","[0.00406700000166893, 0.015716899884864688, 0.027807399863377213, 0.043322299839928746, 0.05991879990324378, 0.0766317998059094, 0.09391299984417856, 0.11000449978746474, 0.12661939999088645, 0.14325219998136163, 0.15987939992919564, 0.17653019982390106, 0.19390089996159077]",23.948630400002003,None,"[1, 1, 1, 1, 1, 1, 1, 1, 1, 1, 1, 1, 1]",50,23.948630400002003,None,23.948630400002003,None,23.948630400002003,None,23.948630400002003,None,,,,,,,,,,,,,,,,,,,a,001,2020_Jun_25_1949,pAdaptTest4,2020.1.3,59.92362134268617,
2,2,1,,,,,0,0,0,0,24.145367400022224,None,24.378215400036424,None,,,,,,,,,"[1, 1, 1, 1, 1, 1, 1, 1, 1, 1, 1, 1, 1, 1, 1, 1, 1, 1, 1, 1, 1, 1, 1, 1, 1, 1, 1, 1, 1, 1, 1, 1, 1, 1, 1, 1, 1, 1, 1, 2, 2, 2, 2, 2, 2, 2, 2, 2, 2, 2, 2, 2, 2, 2, 2, 2, 2, 2, 2, 2, 2, 2, 2, 2, 2, 2, 2, 2, 2, 2, 2, 2, 2, 2, 2, 2, 2, 2, 2, 2, 3, 3, 3, 3, 3, 3, 3, 3, 3, 3, 3, 3, 3, 3, 3, 3, 3, 3, 3, 3, 3, 3, 3, 3, 3, 3, 3, 3, 3, 3, 3, 3, 3, 3, 3, 3, 3, 3, 3, 3]",40,,,,,,,,,"[-0.3658854166666667, -0.3203125, -0.32421875, -0.328125, -0.3307291666666667, -0.3307291666666667, -0.3307291666666667, -0.3307291666666667, -0.3307291666666667, -0.3307291666666667, -0.3307291666666667, -0.3307291666666667, -0.3307291666666667, -0.3307291666666667, -0.3307291666666667, -0.3268229166666667, -0.3046875, -0.26171875, -0.2109375, -0.16015625, -0.12630208333333334, -0.08333333333333333, -0.06380208333333333, -0.05078125, -0.04296875, -0.0390625, -0.036458333333333336, -0.036458333333333336, -0.036458333333333336, -0.036458333333333336, -0.036458333333333336, -0.036458333333333336, -0.036458333333333336, -0.036458333333333336, -0.036458333333333336, -0.03515625, -0.03125, -0.0234375, -0.009114583333333334, 0.0013020833333333333, 0.0078125, 0.01171875, 0.013020833333333334, 0.014322916666666666, 0.014322916666666666, 0.014322916666666666, 0.014322916666666666, 0.014322916666666666, 0.014322916666666666, 0.014322916666666666, 0.014322916666666666, 0.014322916666666666, 0.014322916666666666, 0.014322916666666666, 0.014322916666666666, 0.014322916666666666, 0.014322916666666666, 0.014322916666666666, 0.014322916666666666, 0.014322916666666666, 0.020833333333333332, 0.026041666666666668, 0.044270833333333336, 0.109375, 0.20442708333333334, 0.23828125, 0.2526041666666667, 0.2565104166666667, 0.2565104166666667, 0.2565104166666667, 0.2565104166666667, 0.2604166666666667, 0.2669270833333333, 0.2760416666666667, 0.2864583333333333, 0.3020833333333333, 0.3151041666666667, 0.3255208333333333, 0.3294270833333333, 0.3307291666666667, 0.3307291666666667, 0.3307291666666667, 0.3307291666666667, 0.3294270833333333, 0.32421875, 0.3216145833333333, 0.3216145833333333, 0.3216145833333333, 0.3203125, 0.3190104166666667, 0.3138020833333333, 0.3098958333333333, 0.3033854166666667, 0.29296875, 0.2864583333333333, 0.2630208333333333, 0.2265625, 0.203125, 0.1796875, 0.16276041666666666, 0.15104166666666666, 0.140625, 0.12890625, 0.1171875, 0.10026041666666667, 0.08072916666666667, 0.059895833333333336, 0.046875, 0.024739583333333332, 0.013020833333333334, 0.0026041666666666665, -0.00390625, -0.01171875, -0.016927083333333332, -0.018229166666666668, -0.01953125, -0.020833333333333332, -0.020833333333333332, -0.022135416666666668, -0.022135416666666668]","[0.05078125, 0.037760416666666664, 0.03515625, 0.029947916666666668, 0.0234375, 0.018229166666666668, 0.015625, 0.015625, 0.015625, 0.015625, 0.015625, 0.015625, 0.015625, 0.015625, 0.015625, 0.010416666666666666, -0.01171875, -0.05078125, -0.08463541666666667, -0.10286458333333333, -0.10286458333333333, -0.07421875, -0.049479166666666664, -0.02734375, -0.013020833333333334, -0.006510416666666667, -0.005208333333333333, -0.005208333333333333, -0.005208333333333333, -0.005208333333333333, -0.005208333333333333, -0.005208333333333333, -0.005208333333333333, -0.005208333333333333, -0.005208333333333333, -0.005208333333333333, -0.00390625, -0.0013020833333333333, 0.009114583333333334, 0.014322916666666666, 0.018229166666666668, 0.018229166666666668, 0.018229166666666668, 0.018229166666666668, 0.018229166666666668, 0.01953125, 0.01953125, 0.01953125, 0.01953125, 0.01953125, 0.01953125, 0.01953125, 0.01953125, 0.01953125, 0.01953125, 0.01953125, 0.01953125, 0.01953125, 0.022135416666666668, 0.041666666666666664, 0.06770833333333333, 0.0859375, 0.09895833333333333, 0.1328125, 0.18359375, 0.19921875, 0.20442708333333334, 0.20703125, 0.20703125, 0.20703125, 0.20703125, 0.20703125, 0.20833333333333334, 0.20963541666666666, 0.2109375, 0.21354166666666666, 0.21744791666666666, 0.22916666666666666, 0.23567708333333334, 0.24088541666666666, 0.24479166666666666, 0.24479166666666666, 0.24609375, 0.24739583333333334, 0.2513020833333333, 0.2526041666666667, 0.2526041666666667, 0.2526041666666667, 0.2526041666666667, 0.2526041666666667, 0.2526041666666667, 0.2526041666666667, 0.25, 0.24088541666666666, 0.23307291666666666, 0.20833333333333334, 0.1796875, 0.1640625, 0.1484375, 0.13932291666666666, 0.1328125, 0.12890625, 0.125, 0.12109375, 0.11588541666666667, 0.11067708333333333, 0.10286458333333333, 0.09505208333333333, 0.0859375, 0.078125, 0.0703125, 0.06380208333333333, 0.053385416666666664, 0.040364583333333336, 0.033854166666666664, 0.026041666666666668, 0.01953125, 0.014322916666666666, 0.010416666666666666, 0.006510416666666667]","[0, 0, 0, 0, 0, 0, 0, 0, 0, 0, 0, 0, 0, 0, 0, 0, 0, 0, 0, 0, 0, 0, 0, 0, 0, 0, 0, 0, 0, 0, 0, 0, 0, 0, 0, 0, 0, 0, 0, 0, 0, 0, 0, 0, 0, 0, 0, 0, 0, 0, 0, 0, 0, 0, 0, 0, 0, 0, 0, 0, 0, 0, 0, 0, 0, 0, 0, 0, 0, 0, 0, 0, 0, 0, 0, 0, 0, 0, 0, 0, 0, 0, 0, 0, 0, 0, 0, 0, 0, 0, 0, 0, 0, 0, 0, 0, 0, 0, 0, 0, 0, 0, 0, 0, 0, 0, 0, 0, 0, 0, 0, 0, 0, 0, 0, 0, 0, 0, 0, 0]","[0, 0, 0, 0, 0, 0, 0, 0, 0, 0, 0, 0, 0, 0, 0, 0, 0, 0, 0, 0, 0, 0, 0, 0, 0, 0, 0, 0, 0, 0, 0, 0, 0, 0, 0, 0, 0, 0, 0, 0, 0, 0, 0, 0, 0, 0, 0, 0, 0, 0, 0, 0, 0, 0, 0, 0, 0, 0, 0, 0, 0, 0, 0, 0, 0, 0, 0, 0, 0, 0, 0, 0, 0, 0, 0, 0, 0, 0, 0, 0, 0, 0, 0, 0, 0, 0, 0, 0, 0, 0, 0, 0, 0, 0, 0, 0, 0, 0, 0, 0, 0, 0, 0, 0, 0, 0, 0, 0, 0, 0, 0, 0, 0, 0, 0, 0, 0, 0, 0, 0]","[0, 0, 0, 0, 0, 0, 0, 0, 0, 0, 0, 0, 0, 0, 0, 0, 0, 0, 0, 0, 0, 0, 0, 0, 0, 0, 0, 0, 0, 0, 0, 0, 0, 0, 0, 0, 0, 0, 0, 0, 0, 0, 0, 0, 0, 0, 0, 0, 0, 0, 0, 0, 0, 0, 0, 0, 0, 0, 0, 0, 0, 0, 0, 0, 0, 0, 0, 0, 0, 0, 0, 0, 0, 0, 0, 0, 0, 0, 0, 0, 0, 0, 0, 0, 0, 0, 0, 0, 0, 0, 0, 0, 0, 0, 0, 0, 0, 0, 0, 0, 0, 0, 0, 0, 0, 0, 0, 0, 0, 0, 0, 0, 0, 0, 0, 0, 0, 0, 0, 0]","[0.007633900037035346, 0.0204948999453336, 0.038568600080907345, 0.056201300118118525, 0.07263149996288121, 0.0894059999845922, 0.10568820009939373, 0.12246650015003979, 0.13903630012646317, 0.1556865000165999, 0.17239900003187358, 0.1890449000056833, 0.20569720002822578, 0.2224813001230359, 0.23937289998866618, 0.2560348000843078, 0.2726219000760466, 0.28927870001643896, 0.3060262999497354, 0.32271880004554987, 0.33947740006260574, 0.3560818999540061, 0.3725902000442147, 0.3893645000644028, 0.4059912001248449, 0.42261330015026033, 0.43963000015355647, 0.45562759996391833, 0.47227609995752573, 0.48893310013227165, 0.5056158001534641, 0.5222257000859827, 0.538922700099647, 0.5556201001163572, 0.5723034001421183, 0.5893199001438916, 0.6058500001672655, 0.623007999965921, 0.6398194001521915, 0.6559333000332117, 0.6725874000694603, 0.689140000147745, 0.7058962001465261, 0.7223593001253903, 0.7389889000914991, 0.7556056999601424, 0.7722422999795526, 0.78899130015634, 0.8055452001281083, 0.822653700131923, 0.8388388000894338, 0.8558978999499232, 0.8721539000980556, 0.8889022001530975, 0.9055928001180291, 0.9221632000990212, 0.9388780000153929, 0.9556662000250071, 0.9724908000789583, 0.9894173999782652, 1.0058673000894487, 1.0228234000969678, 1.0392130999825895, 1.0558238001540303, 1.072520200163126, 1.0892074999865144, 1.1058482001535594, 1.1221161000430584, 1.1387804001569748, 1.1554169000592083, 1.1728352999780327, 1.189200900029391, 1.2057731000240892, 1.2225536999758333, 1.2390797000844032, 1.25576960016042, 1.2728180999401957, 1.2891460000537336, 1.305709500098601, 1.3223725000862032, 1.3387360000051558, 1.355699700070545, 1.3724400999490172, 1.3892900000791997, 1.4055157999973744, 1.4221104001626372, 1.4386833000462502, 1.4557201999705285, 1.4723955001682043, 1.489609300158918, 1.5058246001135558, 1.5223071000073105, 1.538975200150162, 1.5558854001574218, 1.5723580000922084, 1.5894073001109064, 1.6057553000282496, 1.6223240999970585, 1.638883300125599, 1.655564900022, 1.6723448000848293, 1.6891884000506252, 1.705684500047937, 1.722345900023356, 1.7389333001337945, 1.7555808001197875, 1.7722895999904722, 1.7889880000147969, 1.8056807001121342, 1.8222362000960857, 1.838931200094521, 1.855960400076583, 1.8722109000664204, 1.8889625000301749, 1.9056606001686305, 1.922250400064513, 1.9388876999728382, 1.9555063000880182, 1.9721562000922859, 1.9888786000665277]",25.40726689994335,None,25.40726689994335,None,25.40726689994335,None,25.40726689994335,None,25.40726689994335,None,25.40726689994335,None,a,001,2020_Jun_25_1949,pAdaptTest4,2020.1.3,59.92362134268617,
2,2,2,,,,,0,1,1,1,,,,,,,,,,,,,"[1, 1, 2, 2, 2, 2, 2, 2, 2, 2, 2, 2, 2, 2, 2, 2, 2, 2, 2, 2, 2, 2, 2, 2, 2, 2, 2, 2, 2, 2, 2, 2, 2, 3, 3, 3, 3, 3, 3, 3, 3, 3, 3, 3, 3, 3, 3, 3, 3, 3, 3, 3, 3, 3, 3, 3, 3, 3, 3, 3, 3, 3, 3, 3, 3, 3, 3, 3, 3, 3, 3]",50,,,,,,,,,"[-0.022135416666666668, -0.022135416666666668, -0.020833333333333332, -0.01953125, -0.016927083333333332, -0.013020833333333334, -0.010416666666666666, -0.009114583333333334, -0.009114583333333334, -0.009114583333333334, -0.0078125, -0.006510416666666667, -0.005208333333333333, 0.0026041666666666665, 0.01171875, 0.024739583333333332, 0.0390625, 0.059895833333333336, 0.08203125, 0.11328125, 0.15625, 0.17447916666666666, 0.18359375, 0.1875, 0.19140625, 0.19401041666666666, 0.20442708333333334, 0.21354166666666666, 0.22265625, 0.22916666666666666, 0.234375, 0.24088541666666666, 0.24348958333333334, 0.24739583333333334, 0.24869791666666666, 0.2526041666666667, 0.2552083333333333, 0.2578125, 0.2578125, 0.2604166666666667, 0.2630208333333333, 0.2630208333333333, 0.265625, 0.2669270833333333, 0.2669270833333333, 0.26953125, 0.2708333333333333, 0.2708333333333333, 0.2708333333333333, 0.2708333333333333, 0.2591145833333333, 0.23567708333333334, 0.19010416666666666, 0.16276041666666666, 0.13802083333333334, 0.11588541666666667, 0.1015625, 0.08463541666666667, 0.078125, 0.07291666666666667, 0.06510416666666667, 0.055989583333333336, 0.040364583333333336, 0.033854166666666664, 0.02734375, 0.022135416666666668, 0.014322916666666666, 0.0078125, -0.0013020833333333333, -0.00390625, -0.005208333333333333]","[0.005208333333333333, 0.00390625, 0.0026041666666666665, 0.0013020833333333333, -0.0013020833333333333, -0.00390625, -0.006510416666666667, -0.006510416666666667, -0.006510416666666667, -0.006510416666666667, -0.0078125, -0.0078125, -0.0078125, -0.0026041666666666665, 0.01953125, 0.052083333333333336, 0.08723958333333333, 0.13411458333333334, 0.17447916666666666, 0.21614583333333334, 0.2565104166666667, 0.26953125, 0.2760416666666667, 0.2799479166666667, 0.28125, 0.28125, 0.2838541666666667, 0.2838541666666667, 0.2838541666666667, 0.28515625, 0.2864583333333333, 0.2877604166666667, 0.2877604166666667, 0.2890625, 0.2890625, 0.2903645833333333, 0.2916666666666667, 0.2942708333333333, 0.2955729166666667, 0.2981770833333333, 0.2994791666666667, 0.2994791666666667, 0.30078125, 0.30078125, 0.30078125, 0.30078125, 0.30078125, 0.30078125, 0.30078125, 0.30078125, 0.2981770833333333, 0.2838541666666667, 0.2513020833333333, 0.22916666666666666, 0.20703125, 0.1875, 0.16927083333333334, 0.15104166666666666, 0.140625, 0.13411458333333334, 0.12760416666666666, 0.11848958333333333, 0.10677083333333333, 0.09635416666666667, 0.08984375, 0.08072916666666667, 0.0703125, 0.05859375, 0.040364583333333336, 0.028645833333333332, 0.01953125]","[0, 0, 0, 0, 0, 0, 0, 0, 0, 0, 0, 0, 0, 0, 0, 0, 0, 0, 0, 0, 0, 0, 0, 0, 0, 0, 0, 0, 0, 0, 0, 0, 0, 0, 0, 0, 0, 0, 0, 0, 0, 0, 0, 0, 0, 0, 0, 0, 0, 0, 0, 0, 0, 0, 0, 0, 0, 0, 0, 0, 0, 0, 0, 0, 0, 0, 0, 0, 0, 0, 0]","[0, 0, 0, 0, 0, 0, 0, 0, 0, 0, 0, 0, 0, 0, 0, 0, 0, 0, 0, 0, 0, 0, 0, 0, 0, 0, 0, 0, 0, 0, 0, 0, 0, 0, 0, 0, 0, 0, 0, 0, 0, 0, 0, 0, 0, 0, 0, 0, 0, 0, 0, 0, 0, 0, 0, 0, 0, 0, 0, 0, 0, 0, 0, 0, 0, 0, 0, 0, 0, 0, 0]","[0, 0, 0, 0, 0, 0, 0, 0, 0, 0, 0, 0, 0, 0, 0, 0, 0, 0, 0, 0, 0, 0, 0, 0, 0, 0, 0, 0, 0, 0, 0, 0, 0, 0, 0, 0, 0, 0, 0, 0, 0, 0, 0, 0, 0, 0, 0, 0, 0, 0, 0, 0, 0, 0, 0, 0, 0, 0, 0, 0, 0, 0, 0, 0, 0, 0, 0, 0, 0, 0, 0]","[0.007332799956202507, 0.02027839981019497, 0.036588599905371666, 0.053300999803468585, 0.06999859982170165, 0.0867398998234421, 0.1030880999751389, 0.11983489990234375, 0.13631839980371296, 0.15321569982916117, 0.1697472999803722, 0.18634299980476499, 0.20325099979527295, 0.22073239996097982, 0.2366161998361349, 0.25331229995936155, 0.26999209984205663, 0.286892700009048, 0.30368409981019795, 0.319906999822706, 0.33664869982749224, 0.3537967000156641, 0.3701004998292774, 0.38684119982644916, 0.4032183999661356, 0.4198270000051707, 0.43656039983034134, 0.4533176999539137, 0.46993299992755055, 0.48662219988182187, 0.5031389999203384, 0.5198303998913616, 0.5365599999204278, 0.5531489998102188, 0.5698898998089135, 0.5867653000168502, 0.6031194999814034, 0.6199058999773115, 0.637814600020647, 0.6533219998236746, 0.6695610999595374, 0.6864971998147666, 0.703242399962619, 0.719513599993661, 0.7363513999152929, 0.7533307999838144, 0.7695312998257577, 0.7860870999284089, 0.8028974998742342, 0.8199163000099361, 0.8364464999176562, 0.8531760999467224, 0.8697104000020772, 0.8863787997979671, 0.9030429997947067, 0.919800299918279, 0.9364286998752505, 0.9535035998560488, 0.9697675998322666, 0.9862889000214636, 1.0029306998476386, 1.0197028999682516, 1.0363787999376655, 1.053643099963665, 1.0696651998441666, 1.0863369000144303, 1.1029497999697924, 1.1196925998665392, 1.1360859000124037, 1.1530652998480946, 1.169586799805984]",27.40979119995609,None,27.40979119995609,None,27.40979119995609,None,27.40979119995609,None,27.40979119995609,None,27.40979119995609,None,a,001,2020_Jun_25_1949,pAdaptTest4,2020.1.3,59.92362134268617,
2,2,3,,,,,0,2,2,2,,,,,,,,,,,,,"[1, 1, 2, 2, 2, 2, 2, 2, 2, 2, 2, 2, 2, 2, 2, 2, 2, 2, 2, 2, 2, 2, 2, 2, 2, 2, 2, 2, 2, 2, 2, 2, 2, 2, 2, 2, 2, 2, 2, 2, 2, 2, 2, 2, 2, 2, 2, 2, 2, 3, 3, 3, 3, 3, 3, 3, 3, 3, 3, 3, 3, 3, 3, 3, 3, 3, 3, 3, 3, 3, 3, 3, 3, 3, 3, 3, 3, 3, 3, 3, 3, 3]",40,,,,,,,,,"[-0.006510416666666667, -0.006510416666666667, -0.0078125, -0.009114583333333334, -0.009114583333333334, -0.010416666666666666, -0.010416666666666666, -0.013020833333333334, -0.014322916666666666, -0.015625, -0.016927083333333332, -0.018229166666666668, -0.01953125, -0.01953125, -0.01953125, -0.01953125, -0.005208333333333333, 0.03515625, 0.0703125, 0.10026041666666667, 0.12630208333333334, 0.14583333333333334, 0.16015625, 0.17057291666666666, 0.1875, 0.20182291666666666, 0.21484375, 0.22916666666666666, 0.24609375, 0.2604166666666667, 0.27734375, 0.2916666666666667, 0.3033854166666667, 0.31640625, 0.3294270833333333, 0.3411458333333333, 0.34765625, 0.3515625, 0.35546875, 0.3580729166666667, 0.3619791666666667, 0.36328125, 0.36328125, 0.36328125, 0.36328125, 0.3580729166666667, 0.3502604166666667, 0.3359375, 0.3138020833333333, 0.2864583333333333, 0.2825520833333333, 0.28125, 0.28125, 0.28125, 0.28125, 0.28125, 0.28125, 0.28125, 0.28125, 0.2799479166666667, 0.2734375, 0.2604166666666667, 0.2265625, 0.20572916666666666, 0.18098958333333334, 0.16015625, 0.14192708333333334, 0.12369791666666667, 0.109375, 0.09114583333333333, 0.08072916666666667, 0.06770833333333333, 0.0546875, 0.044270833333333336, 0.03125, 0.024739583333333332, 0.018229166666666668, 0.014322916666666666, 0.009114583333333334, 0.00390625, 0.0, -0.005208333333333333]","[0.015625, 0.009114583333333334, 0.006510416666666667, 0.005208333333333333, 0.0026041666666666665, 0.0, -0.0013020833333333333, -0.00390625, -0.005208333333333333, -0.006510416666666667, -0.009114583333333334, -0.010416666666666666, -0.010416666666666666, -0.010416666666666666, -0.010416666666666666, -0.010416666666666666, 0.015625, 0.08723958333333333, 0.13671875, 0.17317708333333334, 0.1953125, 0.2109375, 0.22135416666666666, 0.22786458333333334, 0.234375, 0.23828125, 0.2421875, 0.24479166666666666, 0.24869791666666666, 0.2526041666666667, 0.2591145833333333, 0.2630208333333333, 0.26953125, 0.2747395833333333, 0.27734375, 0.27734375, 0.2799479166666667, 0.2799479166666667, 0.2799479166666667, 0.2786458333333333, 0.27734375, 0.2760416666666667, 0.2747395833333333, 0.2747395833333333, 0.2734375, 0.2721354166666667, 0.26953125, 0.2630208333333333, 0.2526041666666667, 0.23828125, 0.23567708333333334, 0.234375, 0.234375, 0.234375, 0.234375, 0.234375, 0.234375, 0.234375, 0.234375, 0.234375, 0.23046875, 0.22135416666666666, 0.20182291666666666, 0.18880208333333334, 0.17447916666666666, 0.15755208333333334, 0.140625, 0.12630208333333334, 0.11328125, 0.09635416666666667, 0.08854166666666667, 0.08072916666666667, 0.07552083333333333, 0.06901041666666667, 0.061197916666666664, 0.0546875, 0.049479166666666664, 0.044270833333333336, 0.037760416666666664, 0.032552083333333336, 0.026041666666666668, 0.018229166666666668]","[0, 0, 0, 0, 0, 0, 0, 0, 0, 0, 0, 0, 0, 0, 0, 0, 0, 0, 0, 0, 0, 0, 0, 0, 0, 0, 0, 0, 0, 0, 0, 0, 0, 0, 0, 0, 0, 0, 0, 0, 0, 0, 0, 0, 0, 0, 0, 0, 0, 0, 0, 0, 0, 0, 0, 0, 0, 0, 0, 0, 0, 0, 0, 0, 0, 0, 0, 0, 0, 0, 0, 0, 0, 0, 0, 0, 0, 0, 0, 0, 0, 0]","[0, 0, 0, 0, 0, 0, 0, 0, 0, 0, 0, 0, 0, 0, 0, 0, 0, 0, 0, 0, 0, 0, 0, 0, 0, 0, 0, 0, 0, 0, 0, 0, 0, 0, 0, 0, 0, 0, 0, 0, 0, 0, 0, 0, 0, 0, 0, 0, 0, 0, 0, 0, 0, 0, 0, 0, 0, 0, 0, 0, 0, 0, 0, 0, 0, 0, 0, 0, 0, 0, 0, 0, 0, 0, 0, 0, 0, 0, 0, 0, 0, 0]","[0, 0, 0, 0, 0, 0, 0, 0, 0, 0, 0, 0, 0, 0, 0, 0, 0, 0, 0, 0, 0, 0, 0, 0, 0, 0, 0, 0, 0, 0, 0, 0, 0, 0, 0, 0, 0, 0, 0, 0, 0, 0, 0, 0, 0, 0, 0, 0, 0, 0, 0, 0, 0, 0, 0, 0, 0, 0, 0, 0, 0, 0, 0, 0, 0, 0, 0, 0, 0, 0, 0, 0, 0, 0, 0, 0, 0, 0, 0, 0, 0, 0]","[0.008835999993607402, 0.02141080005094409, 0.04058770020492375, 0.05817820015363395, 0.07474130019545555, 0.09220690000802279, 0.10803550016134977, 0.12474510003812611, 0.14139610016718507, 0.15836850018240511, 0.17473110021091998, 0.19140730006620288, 0.20789430011063814, 0.22429909999482334, 0.24109130003489554, 0.2584113001357764, 0.27486250014044344, 0.291585500119254, 0.3079617000184953, 0.3248325001914054, 0.3413082000333816, 0.35796880000270903, 0.37467669998295605, 0.3916763002052903, 0.40803240006789565, 0.42483050003647804, 0.44138930016197264, 0.4579698001034558, 0.4745862002018839, 0.49127830006182194, 0.5084169001784176, 0.5247799002099782, 0.5412654001265764, 0.5582544000353664, 0.5745954001322389, 0.5913214001338929, 0.6083717001602054, 0.6247417000122368, 0.6412543000187725, 0.6578494000714272, 0.6745144000742584, 0.6912212001625448, 0.7075142001267523, 0.7242769000586122, 0.7412162001710385, 0.7579028999898583, 0.7745556000154465, 0.7915893001481891, 0.8080547000281513, 0.8247271000873297, 0.8411990001332015, 0.8576255000662059, 0.874215500196442, 0.8909247000701725, 0.9075323999859393, 0.9249158001039177, 0.9409598000347614, 0.9575587001163512, 0.9742426001466811, 0.9912747000344098, 1.007941400166601, 1.0244594002142549, 1.0411365001928061, 1.0580061001237482, 1.074428000021726, 1.0912338001653552, 1.1077986999880522, 1.1245083999820054, 1.1412094000261277, 1.1578431001398712, 1.1745180999860168, 1.1910962001420557, 1.2078000002074987, 1.2245037001557648, 1.2412267001345754, 1.257729000179097, 1.2743925000540912, 1.2910443001892418, 1.3077242001891136, 1.3244828002061695, 1.341226400109008, 1.3577776001766324]",28.588578999973834,None,28.588578999973834,None,28.588578999973834,None,28.588578999973834,None,28.588578999973834,None,28.588578999973834,None,a,001,2020_Jun_25_1949,pAdaptTest4,2020.1.3,59.92362134268617,
2,2,4,,,,,0,3,3,3,,,,,,,,,,,,,"[1, 1, 2, 2, 2, 2, 2, 2, 2, 2, 2, 2, 2, 2, 2, 2, 2, 2, 2, 2, 2, 2, 2, 2, 2, 2, 2, 2, 2, 3, 3, 3, 3, 3, 3, 3, 3, 3, 3, 3, 3, 3, 3, 3, 3, 3, 3, 3, 3, 3, 3, 3, 3, 3, 3, 3, 3, 3, 3, 3, 3, 3, 3]",50,,,,,,,,,"[-0.0078125, -0.01171875, -0.014322916666666666, -0.015625, -0.016927083333333332, -0.016927083333333332, -0.016927083333333332, -0.015625, -0.015625, -0.015625, -0.013020833333333334, -0.00390625, 0.005208333333333333, 0.018229166666666668, 0.0390625, 0.059895833333333336, 0.08072916666666667, 0.11979166666666667, 0.14453125, 0.16927083333333334, 0.18880208333333334, 0.203125, 0.21354166666666666, 0.22265625, 0.23567708333333334, 0.24479166666666666, 0.25390625, 0.265625, 0.2799479166666667, 0.2942708333333333, 0.3046875, 0.30859375, 0.3125, 0.31640625, 0.3203125, 0.3229166666666667, 0.32421875, 0.32421875, 0.32421875, 0.32421875, 0.3216145833333333, 0.3151041666666667, 0.3072916666666667, 0.2916666666666667, 0.28125, 0.2721354166666667, 0.2604166666666667, 0.24609375, 0.22265625, 0.1953125, 0.1328125, 0.1015625, 0.07682291666666667, 0.0625, 0.0546875, 0.044270833333333336, 0.037760416666666664, 0.032552083333333336, 0.026041666666666668, 0.01953125, 0.015625, 0.0078125, 0.0026041666666666665]","[0.015625, 0.010416666666666666, 0.0078125, 0.006510416666666667, 0.0026041666666666665, -0.0013020833333333333, -0.0026041666666666665, -0.005208333333333333, -0.005208333333333333, -0.005208333333333333, -0.005208333333333333, 0.0013020833333333333, 0.013020833333333334, 0.032552083333333336, 0.057291666666666664, 0.08333333333333333, 0.10807291666666667, 0.15234375, 0.17838541666666666, 0.20182291666666666, 0.21614583333333334, 0.2265625, 0.23307291666666666, 0.23958333333333334, 0.25, 0.2565104166666667, 0.2604166666666667, 0.2669270833333333, 0.2734375, 0.2799479166666667, 0.2903645833333333, 0.296875, 0.3046875, 0.3098958333333333, 0.3151041666666667, 0.3177083333333333, 0.3229166666666667, 0.32421875, 0.32421875, 0.32421875, 0.32421875, 0.32421875, 0.3216145833333333, 0.3046875, 0.2942708333333333, 0.2799479166666667, 0.2630208333333333, 0.24348958333333334, 0.21744791666666666, 0.19140625, 0.14583333333333334, 0.12369791666666667, 0.10546875, 0.09244791666666667, 0.08463541666666667, 0.0703125, 0.061197916666666664, 0.053385416666666664, 0.045572916666666664, 0.0390625, 0.033854166666666664, 0.026041666666666668, 0.01953125]","[0, 0, 0, 0, 0, 0, 0, 0, 0, 0, 0, 0, 0, 0, 0, 0, 0, 0, 0, 0, 0, 0, 0, 0, 0, 0, 0, 0, 0, 0, 0, 0, 0, 0, 0, 0, 0, 0, 0, 0, 0, 0, 0, 0, 0, 0, 0, 0, 0, 0, 0, 0, 0, 0, 0, 0, 0, 0, 0, 0, 0, 0, 0]","[0, 0, 0, 0, 0, 0, 0, 0, 0, 0, 0, 0, 0, 0, 0, 0, 0, 0, 0, 0, 0, 0, 0, 0, 0, 0, 0, 0, 0, 0, 0, 0, 0, 0, 0, 0, 0, 0, 0, 0, 0, 0, 0, 0, 0, 0, 0, 0, 0, 0, 0, 0, 0, 0, 0, 0, 0, 0, 0, 0, 0, 0, 0]","[0, 0, 0, 0, 0, 0, 0, 0, 0, 0, 0, 0, 0, 0, 0, 0, 0, 0, 0, 0, 0, 0, 0, 0, 0, 0, 0, 0, 0, 0, 0, 0, 0, 0, 0, 0, 0, 0, 0, 0, 0, 0, 0, 0, 0, 0, 0, 0, 0, 0, 0, 0, 0, 0, 0, 0, 0, 0, 0, 0, 0, 0, 0]","[0.008221199968829751, 0.021457700058817863, 0.04035010002553463, 0.057873900048434734, 0.07507989997975528, 0.0911968001164496, 0.10794769995845854, 0.12428490002639592, 0.1408965999726206, 0.15803780010901392, 0.1745901999529451, 0.19170530000701547, 0.20785570004954934, 0.2245328000281006, 0.24118359992280602, 0.2579789001028985, 0.2745495999697596, 0.29129209998063743, 0.3078372001182288, 0.32454079994931817, 0.341117599979043, 0.35783240012824535, 0.37446810002438724, 0.3912128999363631, 0.4077486000023782, 0.42453940003179014, 0.44101700000464916, 0.45800089999102056, 0.47438349993899465, 0.49104150012135506, 0.5077603000681847, 0.5244549999479204, 0.5411517000757158, 0.5580132000613958, 0.5745332001242787, 0.5910946999210864, 0.608019599923864, 0.6242251000367105, 0.6407314001116902, 0.657506899908185, 0.6744045000523329, 0.6911166999489069, 0.7077301999088377, 0.7245211000554264, 0.7410832999739796, 0.757961800089106, 0.7743144000414759, 0.7910400000400841, 0.8077559999655932, 0.8243567000608891, 0.8410281999967992, 0.8576670000329614, 0.8743278000038117, 0.8910366001073271, 0.9076940999366343, 0.9243169999681413, 0.9409537001047283, 0.9575477000325918, 0.9742696001194417, 0.9909501001238823, 1.0079572999384254, 1.0243033999577165, 1.0409144000150263]",29.955163900041953,None,29.955163900041953,None,29.955163900041953,None,29.955163900041953,None,29.955163900041953,None,29.955163900041953,None,a,001,2020_Jun_25_1949,pAdaptTest4,2020.1.3,59.92362134268617,
2,2,5,,,,,0,4,4,4,,,,,,,,,,,,,"[1, 1, 2, 2, 2, 2, 2, 2, 2, 2, 2, 2, 2, 2, 2, 2, 2, 2, 2, 2, 2, 2, 2, 2, 2, 2, 2, 2, 2, 2, 2, 3, 3, 3, 3, 3, 3, 3, 3, 3, 3, 3, 3, 3, 3, 3, 3, 3, 3, 3, 3, 3, 3, 3, 3, 3, 3, 3, 3, 3, 3]",40,,,,,,,,,"[-0.0013020833333333333, -0.0078125, -0.01171875, -0.015625, -0.018229166666666668, -0.020833333333333332, -0.0234375, -0.024739583333333332, -0.02734375, -0.028645833333333332, -0.029947916666666668, -0.029947916666666668, -0.029947916666666668, -0.029947916666666668, -0.029947916666666668, -0.029947916666666668, -0.029947916666666668, -0.005208333333333333, 0.022135416666666668, 0.05859375, 0.09765625, 0.125, 0.15104166666666666, 0.18489583333333334, 0.20442708333333334, 0.22526041666666666, 0.25390625, 0.2604166666666667, 0.2734375, 0.2903645833333333, 0.3046875, 0.3203125, 0.33203125, 0.34375, 0.3502604166666667, 0.3567708333333333, 0.3619791666666667, 0.3658854166666667, 0.3671875, 0.3684895833333333, 0.3684895833333333, 0.3684895833333333, 0.3684895833333333, 0.3671875, 0.3606770833333333, 0.3463541666666667, 0.3307291666666667, 0.3020833333333333, 0.2630208333333333, 0.1875, 0.140625, 0.1015625, 0.07682291666666667, 0.061197916666666664, 0.05078125, 0.040364583333333336, 0.033854166666666664, 0.026041666666666668, 0.018229166666666668, 0.013020833333333334, 0.0078125]","[0.016927083333333332, 0.010416666666666666, 0.0078125, 0.006510416666666667, 0.00390625, 0.0013020833333333333, -0.0013020833333333333, -0.0026041666666666665, -0.006510416666666667, -0.009114583333333334, -0.010416666666666666, -0.010416666666666666, -0.010416666666666666, -0.010416666666666666, -0.010416666666666666, -0.010416666666666666, -0.010416666666666666, 0.009114583333333334, 0.05078125, 0.09635416666666667, 0.13932291666666666, 0.16145833333333334, 0.18098958333333334, 0.20052083333333334, 0.2109375, 0.21614583333333334, 0.22135416666666666, 0.22395833333333334, 0.2265625, 0.22786458333333334, 0.23177083333333334, 0.23567708333333334, 0.23958333333333334, 0.2421875, 0.24609375, 0.24869791666666666, 0.25, 0.2513020833333333, 0.2513020833333333, 0.2526041666666667, 0.2526041666666667, 0.2526041666666667, 0.2526041666666667, 0.2526041666666667, 0.2526041666666667, 0.24739583333333334, 0.23958333333333334, 0.22265625, 0.19921875, 0.15494791666666666, 0.12369791666666667, 0.09635416666666667, 0.08072916666666667, 0.0703125, 0.061197916666666664, 0.052083333333333336, 0.046875, 0.0390625, 0.03125, 0.024739583333333332, 0.018229166666666668]","[0, 0, 0, 0, 0, 0, 0, 0, 0, 0, 0, 0, 0, 0, 0, 0, 0, 0, 0, 0, 0, 0, 0, 0, 0, 0, 0, 0, 0, 0, 0, 0, 0, 0, 0, 0, 0, 0, 0, 0, 0, 0, 0, 0, 0, 0, 0, 0, 0, 0, 0, 0, 0, 0, 0, 0, 0, 0, 0, 0, 0]","[0, 0, 0, 0, 0, 0, 0, 0, 0, 0, 0, 0, 0, 0, 0, 0, 0, 0, 0, 0, 0, 0, 0, 0, 0, 0, 0, 0, 0, 0, 0, 0, 0, 0, 0, 0, 0, 0, 0, 0, 0, 0, 0, 0, 0, 0, 0, 0, 0, 0, 0, 0, 0, 0, 0, 0, 0, 0, 0, 0, 0]","[0, 0, 0, 0, 0, 0, 0, 0, 0, 0, 0, 0, 0, 0, 0, 0, 0, 0, 0, 0, 0, 0, 0, 0, 0, 0, 0, 0, 0, 0, 0, 0, 0, 0, 0, 0, 0, 0, 0, 0, 0, 0, 0, 0, 0, 0, 0, 0, 0, 0, 0, 0, 0, 0, 0, 0, 0, 0, 0, 0, 0]","[0.00876530003733933, 0.022213400108739734, 0.04075610009022057, 0.058349900180473924, 0.0756954001262784, 0.09157679998315871, 0.10793619998730719, 0.1248916001059115, 0.14153450005687773, 0.1582959999796003, 0.17503090016543865, 0.19131150003522635, 0.20787280006334186, 0.22456720005720854, 0.24120070016942918, 0.2579407000448555, 0.27488679997622967, 0.2922545000910759, 0.3082638999912888, 0.3247760001104325, 0.34143540007062256, 0.3585115000605583, 0.3748022001236677, 0.3920670000370592, 0.4080374001059681, 0.42714340006932616, 0.4432198000140488, 0.4584689000621438, 0.47498379996977746, 0.4914250001311302, 0.5081589999608696, 0.5249024999793619, 0.541363500058651, 0.5584046000149101, 0.5748221001122147, 0.5914126001298428, 0.6081970001105219, 0.6247144001536071, 0.6412429001647979, 0.6578347000759095, 0.6743727000430226, 0.6910845001693815, 0.7082832001615316, 0.7249606000259519, 0.7414772000629455, 0.7585246001835912, 0.7748530001845211, 0.7914570001885295, 0.8080168999731541, 0.8248632999602705, 0.8413549000397325, 0.8585445999633521, 0.8747704999987036, 0.8913394999690354, 0.9081359000410885, 0.9250837999861687, 0.9413662001024932, 0.9580447999760509, 0.9750645000021905, 0.9914437001571059, 1.0080314001534134]",31.005369200138375,None,31.005369200138375,None,31.005369200138375,None,31.005369200138375,None,31.005369200138375,None,31.005369200138375,None,a,001,2020_Jun_25_1949,pAdaptTest4,2020.1.3,59.92362134268617,
2,2,6,,,,,0,5,5,5,,,,,,,,,,,,,"[1, 1, 2, 2, 2, 2, 2, 2, 2, 2, 2, 2, 2, 2, 2, 2, 2, 2, 2, 2, 2, 2, 2, 2, 2, 2, 2, 2, 3, 3, 3, 3, 3, 3, 3, 3, 3, 3, 3, 3, 3, 3, 3, 3, 3, 3, 3, 3, 3, 3, 3, 3, 3, 3, 3, 3, 3, 3, 3, 3, 3, 3]",50,,,,,,,,,"[0.00390625, -0.0026041666666666665, -0.0078125, -0.013020833333333334, -0.015625, -0.018229166666666668, -0.01953125, -0.020833333333333332, -0.020833333333333332, -0.020833333333333332, -0.020833333333333332, -0.020833333333333332, -0.020833333333333332, -0.020833333333333332, -0.0078125, 0.014322916666666666, 0.044270833333333336, 0.07942708333333333, 0.11197916666666667, 0.16015625, 0.18229166666666666, 0.19921875, 0.2109375, 0.22265625, 0.23697916666666666, 0.24609375, 0.2526041666666667, 0.2591145833333333, 0.265625, 0.2721354166666667, 0.2786458333333333, 0.2916666666666667, 0.2994791666666667, 0.3046875, 0.3072916666666667, 0.30859375, 0.30859375, 0.30859375, 0.30859375, 0.30859375, 0.30859375, 0.30859375, 0.3046875, 0.2903645833333333, 0.2708333333333333, 0.24479166666666666, 0.20833333333333334, 0.171875, 0.13151041666666666, 0.10677083333333333, 0.08463541666666667, 0.078125, 0.07161458333333333, 0.06510416666666667, 0.057291666666666664, 0.048177083333333336, 0.037760416666666664, 0.024739583333333332, 0.018229166666666668, 0.014322916666666666, 0.0078125, 0.0026041666666666665]","[0.014322916666666666, 0.0078125, 0.00390625, 0.0, -0.0013020833333333333, -0.00390625, -0.006510416666666667, -0.0078125, -0.0078125, -0.009114583333333334, -0.009114583333333334, -0.009114583333333334, -0.009114583333333334, -0.009114583333333334, 0.00390625, 0.032552083333333336, 0.07291666666666667, 0.1171875, 0.1484375, 0.19010416666666666, 0.20833333333333334, 0.22786458333333334, 0.24348958333333334, 0.2578125, 0.2708333333333333, 0.2786458333333333, 0.2838541666666667, 0.2877604166666667, 0.2916666666666667, 0.296875, 0.30078125, 0.3072916666666667, 0.3125, 0.31640625, 0.31640625, 0.31640625, 0.3177083333333333, 0.3177083333333333, 0.3177083333333333, 0.3177083333333333, 0.3177083333333333, 0.3177083333333333, 0.3125, 0.2981770833333333, 0.28125, 0.2604166666666667, 0.23307291666666666, 0.19661458333333334, 0.15104166666666666, 0.12109375, 0.09505208333333333, 0.08723958333333333, 0.07682291666666667, 0.06901041666666667, 0.061197916666666664, 0.055989583333333336, 0.048177083333333336, 0.0390625, 0.03515625, 0.03125, 0.02734375, 0.0234375]","[0, 0, 0, 0, 0, 0, 0, 0, 0, 0, 0, 0, 0, 0, 0, 0, 0, 0, 0, 0, 0, 0, 0, 0, 0, 0, 0, 0, 0, 0, 0, 0, 0, 0, 0, 0, 0, 0, 0, 0, 0, 0, 0, 0, 0, 0, 0, 0, 0, 0, 0, 0, 0, 0, 0, 0, 0, 0, 0, 0, 0, 0]","[0, 0, 0, 0, 0, 0, 0, 0, 0, 0, 0, 0, 0, 0, 0, 0, 0, 0, 0, 0, 0, 0, 0, 0, 0, 0, 0, 0, 0, 0, 0, 0, 0, 0, 0, 0, 0, 0, 0, 0, 0, 0, 0, 0, 0, 0, 0, 0, 0, 0, 0, 0, 0, 0, 0, 0, 0, 0, 0, 0, 0, 0]","[0, 0, 0, 0, 0, 0, 0, 0, 0, 0, 0, 0, 0, 0, 0, 0, 0, 0, 0, 0, 0, 0, 0, 0, 0, 0, 0, 0, 0, 0, 0, 0, 0, 0, 0, 0, 0, 0, 0, 0, 0, 0, 0, 0, 0, 0, 0, 0, 0, 0, 0, 0, 0, 0, 0, 0, 0, 0, 0, 0, 0, 0]","[0.009134700056165457, 0.02236340008676052, 0.040684200124815106, 0.058005600003525615, 0.07472050003707409, 0.09132440015673637, 0.10873110010288656, 0.12430430017411709, 0.14118180004879832, 0.15769240004010499, 0.17419550009071827, 0.19087930000387132, 0.20760049996897578, 0.224621000001207, 0.24130069999955595, 0.25788759998977184, 0.2744969001505524, 0.29130759998224676, 0.3078580000437796, 0.3248412001412362, 0.3411328000947833, 0.35777360014617443, 0.3747099000029266, 0.39123590011149645, 0.40777080017142, 0.4255606001242995, 0.44123930018395185, 0.4577375000808388, 0.47447680006735027, 0.49112630006857216, 0.5078249999787658, 0.5245145000517368, 0.5412020001094788, 0.5577856001909822, 0.5744560000021011, 0.591054999968037, 0.6074634999968112, 0.6241407999768853, 0.6414146001916379, 0.6574947000481188, 0.6740902999881655, 0.6910423000808805, 0.707880700007081, 0.724526199977845, 0.7411523000337183, 0.7577508001122624, 0.774492199998349, 0.7910518001299351, 0.8077754999976605, 0.824482399970293, 0.8410007001366466, 0.8578993000555784, 0.8745339000597596, 0.8909309001173824, 0.9078788000624627, 0.9243761000689119, 0.9409310000482947, 0.9577530000824481, 0.9744675001129508, 0.9908897001296282, 1.0077041999902576, 1.024333800189197]",32.02204900002107,None,32.02204900002107,None,32.02204900002107,None,32.02204900002107,None,32.02204900002107,None,32.02204900002107,None,a,001,2020_Jun_25_1949,pAdaptTest4,2020.1.3,59.92362134268617,
2,2,7,,,,,0,6,6,6,,,,,,,,,,,,,"[1, 1, 2, 2, 2, 2, 2, 2, 2, 2, 2, 2, 2, 2, 2, 2, 2, 2, 2, 2, 2, 2, 2, 2, 2, 2, 2, 2, 2, 2, 3, 3, 3, 3, 3, 3, 3, 3, 3, 3, 3, 3, 3, 3, 3, 3, 3, 3, 3, 3, 3, 3, 3, 3, 3, 3, 3, 3, 3, 3, 3, 3, 3, 3]",40,,,,,,,,,"[-0.005208333333333333, -0.01171875, -0.013020833333333334, -0.016927083333333332, -0.018229166666666668, -0.020833333333333332, -0.020833333333333332, -0.022135416666666668, -0.0234375, -0.0234375, -0.0234375, -0.0234375, -0.01953125, -0.006510416666666667, 0.024739583333333332, 0.057291666666666664, 0.08072916666666667, 0.10286458333333333, 0.125, 0.14713541666666666, 0.1796875, 0.20182291666666666, 0.22005208333333334, 0.23958333333333334, 0.2552083333333333, 0.2682291666666667, 0.28125, 0.2942708333333333, 0.3020833333333333, 0.3072916666666667, 0.3125, 0.3203125, 0.3346354166666667, 0.3424479166666667, 0.3463541666666667, 0.3489583333333333, 0.3515625, 0.35546875, 0.35546875, 0.35546875, 0.35546875, 0.35546875, 0.3541666666666667, 0.3489583333333333, 0.3346354166666667, 0.31640625, 0.2877604166666667, 0.25, 0.19921875, 0.15755208333333334, 0.10026041666666667, 0.07942708333333333, 0.06510416666666667, 0.055989583333333336, 0.049479166666666664, 0.04296875, 0.037760416666666664, 0.029947916666666668, 0.0234375, 0.018229166666666668, 0.009114583333333334, 0.0013020833333333333, -0.00390625, -0.013020833333333334]","[0.018229166666666668, 0.013020833333333334, 0.01171875, 0.0078125, 0.006510416666666667, 0.005208333333333333, 0.00390625, 0.00390625, 0.0013020833333333333, 0.0013020833333333333, 0.0013020833333333333, 0.0013020833333333333, 0.0013020833333333333, 0.010416666666666666, 0.04296875, 0.07552083333333333, 0.1015625, 0.12369791666666667, 0.14192708333333334, 0.16015625, 0.18229166666666666, 0.19791666666666666, 0.2109375, 0.22005208333333334, 0.2265625, 0.22916666666666666, 0.23177083333333334, 0.23307291666666666, 0.234375, 0.234375, 0.23567708333333334, 0.23567708333333334, 0.23958333333333334, 0.24348958333333334, 0.24739583333333334, 0.2513020833333333, 0.25390625, 0.2552083333333333, 0.2552083333333333, 0.2552083333333333, 0.2552083333333333, 0.2552083333333333, 0.2513020833333333, 0.24348958333333334, 0.22526041666666666, 0.20963541666666666, 0.19270833333333334, 0.17317708333333334, 0.14973958333333334, 0.13020833333333334, 0.1015625, 0.08723958333333333, 0.07682291666666667, 0.0703125, 0.06380208333333333, 0.05859375, 0.0546875, 0.046875, 0.04296875, 0.0390625, 0.032552083333333336, 0.028645833333333332, 0.026041666666666668, 0.020833333333333332]","[0, 0, 0, 0, 0, 0, 0, 0, 0, 0, 0, 0, 0, 0, 0, 0, 0, 0, 0, 0, 0, 0, 0, 0, 0, 0, 0, 0, 0, 0, 0, 0, 0, 0, 0, 0, 0, 0, 0, 0, 0, 0, 0, 0, 0, 0, 0, 0, 0, 0, 0, 0, 0, 0, 0, 0, 0, 0, 0, 0, 0, 0, 0, 0]","[0, 0, 0, 0, 0, 0, 0, 0, 0, 0, 0, 0, 0, 0, 0, 0, 0, 0, 0, 0, 0, 0, 0, 0, 0, 0, 0, 0, 0, 0, 0, 0, 0, 0, 0, 0, 0, 0, 0, 0, 0, 0, 0, 0, 0, 0, 0, 0, 0, 0, 0, 0, 0, 0, 0, 0, 0, 0, 0, 0, 0, 0, 0, 0]","[0, 0, 0, 0, 0, 0, 0, 0, 0, 0, 0, 0, 0, 0, 0, 0, 0, 0, 0, 0, 0, 0, 0, 0, 0, 0, 0, 0, 0, 0, 0, 0, 0, 0, 0, 0, 0, 0, 0, 0, 0, 0, 0, 0, 0, 0, 0, 0, 0, 0, 0, 0, 0, 0, 0, 0, 0, 0, 0, 0, 0, 0, 0, 0]","[0.008513200096786022, 0.022517699981108308, 0.0411485000513494, 0.05861099995672703, 0.07551110000349581, 0.09191810013726354, 0.10843530017882586, 0.1253106000367552, 0.14165850006975234, 0.15836440003477037, 0.17495899996720254, 0.19196210009977221, 0.20866310014389455, 0.22521300008520484, 0.24259519996121526, 0.25863360008224845, 0.27522660000249743, 0.292046400019899, 0.3085902000311762, 0.3253061999566853, 0.3419664001557976, 0.358718000119552, 0.37507469998672605, 0.39188460004515946, 0.40842800005339086, 0.4251743000932038, 0.44176690001040697, 0.45841980003751814, 0.4751212000846863, 0.4918357999995351, 0.5085444001015276, 0.5251925000920892, 0.5418464001268148, 0.5590743001084775, 0.5752833001315594, 0.5917799000162631, 0.6085401000455022, 0.6247382999863476, 0.6414530000183731, 0.6581348001491278, 0.6748979000840336, 0.6914613000117242, 0.7083666999824345, 0.7251480000559241, 0.7418657999951392, 0.7585230001714081, 0.7749998001381755, 0.7917553000152111, 0.8083675000816584, 0.8254262001719326, 0.8418652999680489, 0.8584098999854177, 0.8750672000460327, 0.8917041001841426, 0.9083478001412004, 0.9253710000775754, 0.9417157000862062, 0.9583227001130581, 0.9753493000753224, 0.991817899979651, 1.008353800047189, 1.0253924001008272, 1.0416306001134217, 1.0583920001517981]",33.05371679994278,None,33.05371679994278,None,33.05371679994278,None,33.05371679994278,None,33.05371679994278,None,33.05371679994278,None,a,001,2020_Jun_25_1949,pAdaptTest4,2020.1.3,59.92362134268617,
2,2,8,,,,,0,7,7,7,,,,,,,,,,,,,"[1, 1, 2, 2, 2, 2, 2, 2, 2, 2, 2, 2, 2, 2, 2, 2, 2, 2, 2, 2, 2, 2, 2, 2, 2, 2, 2, 3, 3, 3, 3, 3, 3, 3, 3, 3, 3, 3, 3, 3, 3, 3, 3, 3, 3, 3, 3, 3, 3, 3, 3, 3, 3, 3, 3, 3, 3, 3, 3, 3, 3, 3, 3, 3]",50,,,,,,,,,"[-0.015625, -0.022135416666666668, -0.0234375, -0.024739583333333332, -0.026041666666666668, -0.026041666666666668, -0.026041666666666668, -0.026041666666666668, -0.024739583333333332, -0.0234375, -0.022135416666666668, -0.01953125, -0.015625, -0.01171875, -0.0078125, -0.005208333333333333, -0.0013020833333333333, 0.006510416666666667, 0.020833333333333332, 0.06901041666666667, 0.11328125, 0.16015625, 0.19270833333333334, 0.21875, 0.2421875, 0.2591145833333333, 0.2825520833333333, 0.2981770833333333, 0.30859375, 0.3138020833333333, 0.3203125, 0.3229166666666667, 0.3307291666666667, 0.3346354166666667, 0.3372395833333333, 0.3385416666666667, 0.3385416666666667, 0.3385416666666667, 0.3385416666666667, 0.3385416666666667, 0.33203125, 0.3203125, 0.3059895833333333, 0.2877604166666667, 0.24869791666666666, 0.22395833333333334, 0.19401041666666666, 0.16927083333333334, 0.14322916666666666, 0.11848958333333333, 0.09375, 0.08333333333333333, 0.07291666666666667, 0.061197916666666664, 0.053385416666666664, 0.045572916666666664, 0.037760416666666664, 0.032552083333333336, 0.028645833333333332, 0.024739583333333332, 0.020833333333333332, 0.016927083333333332, 0.010416666666666666, 0.005208333333333333]","[0.016927083333333332, 0.009114583333333334, 0.00390625, -0.0013020833333333333, -0.0026041666666666665, -0.005208333333333333, -0.006510416666666667, -0.009114583333333334, -0.010416666666666666, -0.010416666666666666, -0.010416666666666666, -0.010416666666666666, -0.010416666666666666, -0.009114583333333334, -0.006510416666666667, -0.00390625, 0.0, 0.006510416666666667, 0.02734375, 0.09765625, 0.14973958333333334, 0.1953125, 0.22395833333333334, 0.24479166666666666, 0.2604166666666667, 0.2721354166666667, 0.2864583333333333, 0.296875, 0.3020833333333333, 0.3046875, 0.3059895833333333, 0.3072916666666667, 0.3098958333333333, 0.3098958333333333, 0.3111979166666667, 0.3111979166666667, 0.3111979166666667, 0.3111979166666667, 0.3111979166666667, 0.3111979166666667, 0.3111979166666667, 0.3059895833333333, 0.2916666666666667, 0.27734375, 0.24609375, 0.22395833333333334, 0.19791666666666666, 0.17447916666666666, 0.15234375, 0.1328125, 0.10807291666666667, 0.10026041666666667, 0.08984375, 0.08203125, 0.07291666666666667, 0.06510416666666667, 0.053385416666666664, 0.046875, 0.04296875, 0.0390625, 0.03515625, 0.029947916666666668, 0.024739583333333332, 0.020833333333333332]","[0, 0, 0, 0, 0, 0, 0, 0, 0, 0, 0, 0, 0, 0, 0, 0, 0, 0, 0, 0, 0, 0, 0, 0, 0, 0, 0, 0, 0, 0, 0, 0, 0, 0, 0, 0, 0, 0, 0, 0, 0, 0, 0, 0, 0, 0, 0, 0, 0, 0, 0, 0, 0, 0, 0, 0, 0, 0, 0, 0, 0, 0, 0, 0]","[0, 0, 0, 0, 0, 0, 0, 0, 0, 0, 0, 0, 0, 0, 0, 0, 0, 0, 0, 0, 0, 0, 0, 0, 0, 0, 0, 0, 0, 0, 0, 0, 0, 0, 0, 0, 0, 0, 0, 0, 0, 0, 0, 0, 0, 0, 0, 0, 0, 0, 0, 0, 0, 0, 0, 0, 0, 0, 0, 0, 0, 0, 0, 0]","[0, 0, 0, 0, 0, 0, 0, 0, 0, 0, 0, 0, 0, 0, 0, 0, 0, 0, 0, 0, 0, 0, 0, 0, 0, 0, 0, 0, 0, 0, 0, 0, 0, 0, 0, 0, 0, 0, 0, 0, 0, 0, 0, 0, 0, 0, 0, 0, 0, 0, 0, 0, 0, 0, 0, 0, 0, 0, 0, 0, 0, 0, 0, 0]","[0.008345999987795949, 0.022605899954214692, 0.039941899944096804, 0.05701550003141165, 0.07385020004585385, 0.09043640014715493, 0.1071651999372989, 0.12444770010188222, 0.14061879995279014, 0.15713330009020865, 0.17382070003077388, 0.19042730005457997, 0.2072114001493901, 0.22505280002951622, 0.24068900011479855, 0.2576051000505686, 0.2738922000862658, 0.2906061001121998, 0.30725229997187853, 0.3241556000430137, 0.340400000102818, 0.3571198999416083, 0.37383490009233356, 0.3904069000855088, 0.40711150015704334, 0.42397330002859235, 0.4403381999582052, 0.45699220011010766, 0.4737089001573622, 0.49035600014030933, 0.5070653001312166, 0.5237720001023263, 0.5410941999871284, 0.5572256001178175, 0.5736726999748498, 0.5900048001203686, 0.6067069000564516, 0.6234132000245154, 0.6399578999262303, 0.6570177001412958, 0.6736159999854863, 0.690332300029695, 0.7070234999991953, 0.723711600061506, 0.7403343999758363, 0.7569186000619084, 0.7735965000465512, 0.7902460999321193, 0.8069792001042515, 0.8236463000066578, 0.8403144001495093, 0.857550400076434, 0.8735204001422971, 0.8904957000631839, 0.9069149000570178, 0.923642799956724, 0.9402769000735134, 0.9572958000935614, 0.9735187999904156, 0.9901680001057684, 1.006854500155896, 1.0236530001275241, 1.0402293000370264, 1.0573255000635982]",34.12228549993597,None,34.12228549993597,None,34.12228549993597,None,34.12228549993597,None,34.12228549993597,None,34.12228549993597,None,a,001,2020_Jun_25_1949,pAdaptTest4,2020.1.3,59.92362134268617,
2,2,9,,,,,0,8,8,8,,,,,,,,,,,,,"[1, 1, 2, 2, 2, 2, 2, 2, 2, 2, 2, 2, 2, 2, 2, 2, 2, 2, 2, 2, 2, 2, 2, 2, 2, 2, 2, 2, 2, 2, 2, 2, 2, 2, 2, 2, 2, 2, 3, 3, 3, 3, 3, 3, 3, 3, 3, 3, 3, 3, 3, 3, 3, 3, 3, 3, 3, 3, 3, 3, 3, 3, 3, 3, 3, 3, 3, 3, 3, 3]",40,,,,,,,,,"[0.00390625, -0.0078125, -0.015625, -0.020833333333333332, -0.026041666666666668, -0.029947916666666668, -0.032552083333333336, -0.032552083333333336, -0.032552083333333336, -0.032552083333333336, -0.024739583333333332, -0.013020833333333334, 0.0026041666666666665, 0.022135416666666668, 0.040364583333333336, 0.059895833333333336, 0.08072916666666667, 0.11588541666666667, 0.13802083333333334, 0.1640625, 0.18880208333333334, 0.20052083333333334, 0.20963541666666666, 0.21484375, 0.22135416666666666, 0.2265625, 0.23177083333333334, 0.23958333333333334, 0.24609375, 0.2526041666666667, 0.26171875, 0.26953125, 0.2747395833333333, 0.2799479166666667, 0.28515625, 0.2942708333333333, 0.3033854166666667, 0.31640625, 0.32421875, 0.3294270833333333, 0.3359375, 0.33984375, 0.34375, 0.3463541666666667, 0.3489583333333333, 0.3502604166666667, 0.3515625, 0.3515625, 0.3515625, 0.3515625, 0.3515625, 0.3424479166666667, 0.328125, 0.30859375, 0.2838541666666667, 0.22916666666666666, 0.19270833333333334, 0.14453125, 0.109375, 0.078125, 0.0546875, 0.028645833333333332, 0.020833333333333332, 0.015625, 0.013020833333333334, 0.010416666666666666, 0.0078125, 0.005208333333333333, 0.0, -0.005208333333333333]","[0.018229166666666668, 0.010416666666666666, 0.005208333333333333, 0.0, -0.00390625, -0.009114583333333334, -0.014322916666666666, -0.016927083333333332, -0.018229166666666668, -0.01953125, -0.01953125, -0.013020833333333334, 0.0, 0.024739583333333332, 0.049479166666666664, 0.07552083333333333, 0.1015625, 0.13541666666666666, 0.15625, 0.17447916666666666, 0.18880208333333334, 0.19661458333333334, 0.203125, 0.20572916666666666, 0.20833333333333334, 0.20963541666666666, 0.20963541666666666, 0.2109375, 0.2109375, 0.2109375, 0.2109375, 0.2109375, 0.2109375, 0.21354166666666666, 0.21614583333333334, 0.22005208333333334, 0.22395833333333334, 0.22526041666666666, 0.2265625, 0.22916666666666666, 0.22916666666666666, 0.23177083333333334, 0.23307291666666666, 0.23307291666666666, 0.234375, 0.234375, 0.234375, 0.234375, 0.234375, 0.234375, 0.234375, 0.23046875, 0.21744791666666666, 0.20182291666666666, 0.18359375, 0.15234375, 0.13020833333333334, 0.1015625, 0.08463541666666667, 0.0703125, 0.061197916666666664, 0.052083333333333336, 0.045572916666666664, 0.041666666666666664, 0.0390625, 0.037760416666666664, 0.03515625, 0.03125, 0.026041666666666668, 0.020833333333333332]","[0, 0, 0, 0, 0, 0, 0, 0, 0, 0, 0, 0, 0, 0, 0, 0, 0, 0, 0, 0, 0, 0, 0, 0, 0, 0, 0, 0, 0, 0, 0, 0, 0, 0, 0, 0, 0, 0, 0, 0, 0, 0, 0, 0, 0, 0, 0, 0, 0, 0, 0, 0, 0, 0, 0, 0, 0, 0, 0, 0, 0, 0, 0, 0, 0, 0, 0, 0, 0, 0]","[0, 0, 0, 0, 0, 0, 0, 0, 0, 0, 0, 0, 0, 0, 0, 0, 0, 0, 0, 0, 0, 0, 0, 0, 0, 0, 0, 0, 0, 0, 0, 0, 0, 0, 0, 0, 0, 0, 0, 0, 0, 0, 0, 0, 0, 0, 0, 0, 0, 0, 0, 0, 0, 0, 0, 0, 0, 0, 0, 0, 0, 0, 0, 0, 0, 0, 0, 0, 0, 0]","[0, 0, 0, 0, 0, 0, 0, 0, 0, 0, 0, 0, 0, 0, 0, 0, 0, 0, 0, 0, 0, 0, 0, 0, 0, 0, 0, 0, 0, 0, 0, 0, 0, 0, 0, 0, 0, 0, 0, 0, 0, 0, 0, 0, 0, 0, 0, 0, 0, 0, 0, 0, 0, 0, 0, 0, 0, 0, 0, 0, 0, 0, 0, 0, 0, 0, 0, 0, 0, 0]","[0.00840029981918633, 0.021709399996325374, 0.03880999982357025, 0.055523799965158105, 0.07232799986377358, 0.08871849998831749, 0.10646419995464385, 0.12214739993214607, 0.13890699995681643, 0.15555239981040359, 0.17225730000063777, 0.1888654998037964, 0.20548329991288483, 0.2222638998646289, 0.23886379995383322, 0.25549509981647134, 0.2722485999111086, 0.28888969984836876, 0.30556319979950786, 0.32222339999862015, 0.33879309985786676, 0.35567699978128076, 0.37209939979948103, 0.3887880998663604, 0.40541159990243614, 0.42240809998475015, 0.438752599991858, 0.4557887997943908, 0.47205339977517724, 0.48865639977157116, 0.5053144998382777, 0.5224409999791533, 0.5386694998014718, 0.5556269998196512, 0.5720467998180538, 0.5887029999867082, 0.6053985999897122, 0.6223591999150813, 0.6387289999984205, 0.6554357998538762, 0.672089799772948, 0.6887609998229891, 0.7054170998744667, 0.7220952999778092, 0.7391989999450743, 0.7553694997914135, 0.7716973999049515, 0.7883760998956859, 0.8050102998968214, 0.8216899998951703, 0.8391110999509692, 0.8553434999193996, 0.8719736998900771, 0.8887063998263329, 0.9053781998809427, 0.9219637999776751, 0.938732799841091, 0.9552603999618441, 0.9718938998412341, 0.9887688998132944, 1.0052806998137385, 1.022128699813038, 1.038676899857819, 1.0555977998301387, 1.0718617998063564, 1.0885051998775452, 1.1052978998050094, 1.1219872999936342, 1.1384424997959286, 1.1551624999847263]",35.18967909994535,None,35.18967909994535,None,35.18967909994535,None,35.18967909994535,None,35.18967909994535,None,35.18967909994535,None,a,001,2020_Jun_25_1949,pAdaptTest4,2020.1.3,59.92362134268617,
